File: ZIPBATT5107240001 - record.csv
DataPoint,Cycle Index,Step Index,Step started to end the identification ,Step Type,Time,Total Time,Current(A),Voltage(V),Capacity(Ah),Spec. Cap.(mAh/g),Chg. Cap.(Ah),Chg. Spec. Cap.(mAh/g),DChg. Cap.(Ah),DChg. Spec. Cap.(mAh/g),Energy(Wh),Spec. Energy(mWh/g),Chg. Energy(Wh),Chg. Spec. Energy(mWh/g),DChg. Energy(Wh),DChg. Spec. Energy(mWh/g),Date,Power(W),dQ/dV(mAh/V),dQm/dV(mAh/V.g),Contact resistance(mÎ©),Module start-stop switch,SOC/DOD(%),LgD
1,1,1,0,CCCV Chg,00:00:00,00:00:00,50.0055,53.0008,0.0000,0.00,0.0000,0.00,0.0000,0.00,0.0000,0.00,0.0000,0.00,0.0000,0.00,2024-07-01 12:47:54,2650.33,0.0,0.0,0.00,Close,0.00,
5,1,1,,CCCV Chg,00:02:00,00:02:00,50.0011,54.0257,1.6667,1666654.58,1.6667,1666654.58,0.0000,0.00,89.7591,89759084.09,89.7591,89759084.09,0.0000,0.00,2024-07-01 12:49:54,2701.34,13706.1,13706081.9,0.00,Close,2.16,
9,1,1,,CCCV Chg,00:04:00,00:04:00,50.0000,54.0881,3.3333,3333309.16,3.3333,3333309.16,0.0000,0.00,179.8629,179862857.96,179.8629,179862857.96,0.0000,0.00,2024-07-01 12:51:54,2704.4,46816.1,46816139.8,0.00,Close,4.32,
13,1,1,,CCCV Chg,00:06:00,00:06:00,50.0008,54.1221,5.0000,4999965.51,5.0000,4999965.51,0.0000,0.00,270.0419,270041884.44,270.0419,270041884.44,0.0000,0.00,2024-07-01 12:53:54,2706.15,59523.3,59523301.6,0.00,Close,6.49,
17,1,1,,CCCV Chg,00:08:00,00:08:00,49.9991,54.1412,6.6666,6666621.16,6.6666,6666621.16,0.0000,0.00,360.2654,360265386.67,360.2654,360265386.67,0.0000,0.00,2024-07-01 12:55:54,2707.01,245095.3,245095320.3,0.00,Close,8.65,
21,1,1,,CCCV Chg,00:10:00,00:10:00,50.0029,54.1562,8.3333,8333279.29,8.3333,8333279.29,0.0000,0.00,450.5146,450514625.42,450.5146,450514625.42,0.0000,0.00,2024-07-01 12:57:54,2707.96,231480.9,231480888.9,0.00,Close,10.81,
25,1,1,,CCCV Chg,00:12:00,00:12:00,50.0022,54.1610,9.9999,9999932.44,9.9999,9999932.44,0.0000,0.00,540.7785,540778541.51,540.7785,540778541.51,0.0000,0.00,2024-07-01 12:59:54,2708.17,347219.6,347219555.6,0.00,Close,12.97,
29,1,1,,CCCV Chg,00:14:00,00:14:00,49.9975,54.1698,11.6666,11666589.16,11.6666,11666589.16,0.0000,0.00,631.0527,631052652.09,631.0527,631052652.09,0.0000,0.00,2024-07-01 13:01:54,2708.35,245096.2,245096156.9,0.00,Close,15.14,
33,1,1,,CCCV Chg,00:16:00,00:16:00,49.9985,54.1752,13.3332,13333239.47,13.3332,13333239.47,0.0000,0.00,721.3372,721337184.71,721.3372,721337184.71,0.0000,0.00,2024-07-01 13:03:54,2708.68,1388871.1,1388871111.1,0.00,Close,17.30,
37,1,1,,CCCV Chg,00:18:00,00:18:00,50.0023,54.1764,14.9999,14999894.76,14.9999,14999894.76,0.0000,0.00,811.6306,811630592.00,811.6306,811630592.00,0.0000,0.00,2024-07-01 13:05:54,2708.95,-245095.7,-245095738.6,0.00,Close,19.46,
41,1,1,,CCCV Chg,00:20:00,00:20:00,49.9997,54.1830,16.6666,16666551.47,16.6666,16666551.47,0.0000,0.00,901.9312,901931190.04,901.9312,901931190.04,0.0000,0.00,2024-07-01 13:07:54,2709.13,1041664.0,1041664000.0,0.00,Close,21.62,
45,1,1,,CCCV Chg,00:22:00,00:22:00,50.0018,54.1900,18.3332,18333213.87,18.3332,18333213.87,0.0000,0.00,992.2425,992242528.71,992.2425,992242528.71,0.0000,0.00,2024-07-01 13:09:54,2709.6,208332.8,208332800.0,0.00,Close,23.79,
49,1,1,,CCCV Chg,00:24:00,00:24:00,49.9997,54.1990,19.9999,19999866.31,19.9999,19999866.31,0.0000,0.00,1082.57,1082567429.69,1082.57,1082567429.69,0.0000,0.00,2024-07-01 13:11:54,2709.93,173608.9,173608888.9,0.00,Close,25.95,
53,1,1,,CCCV Chg,00:26:00,00:26:00,49.9948,54.2118,21.6665,21666528.71,21.6665,21666528.71,0.0000,0.00,1172.91,1172908623.64,1172.91,1172908623.64,0.0000,0.00,2024-07-01 13:13:54,2710.31,94696.4,94696404.0,0.00,Close,28.11,
57,1,1,,CCCV Chg,00:28:00,00:28:00,49.9997,54.2247,23.3332,23333188.27,23.3332,23333188.27,0.0000,0.00,1263.27,1263269023.29,1263.27,1263269023.29,0.0000,0.00,2024-07-01 13:15:54,2711.22,81699.1,81699137.3,0.00,Close,30.27,
61,1,1,,CCCV Chg,00:30:00,00:30:00,49.9996,54.2393,24.9998,24999842.13,24.9998,24999842.13,0.0000,0.00,1353.65,1353650631.11,1353.65,1353650631.11,0.0000,0.00,2024-07-01 13:17:54,2711.94,54824.4,54824421.1,0.00,Close,32.44,
65,1,1,,CCCV Chg,00:32:00,00:32:00,49.9967,54.2531,26.6665,26666498.84,26.6665,26666498.84,0.0000,0.00,1444.06,1444057907.20,1444.06,1444057907.20,0.0000,0.00,2024-07-01 13:19:54,2712.48,85033.2,85033215.4,0.00,Close,34.60,
69,1,1,,CCCV Chg,00:34:00,00:34:00,50.0021,54.2704,28.3332,28333158.40,28.3332,28333158.40,0.0000,0.00,1534.49,1534491579.73,1534.49,1534491579.73,0.0000,0.00,2024-07-01 13:21:54,2713.64,78616.2,78616150.9,0.00,Close,36.76,
73,1,1,,CCCV Chg,00:36:00,00:36:00,50.0026,54.2905,29.9998,29999812.27,29.9998,29999812.27,0.0000,0.00,1624.96,1624955653.69,1624.96,1624955653.69,0.0000,0.00,2024-07-01 13:23:54,2714.67,68305.4,68305369.8,0.00,Close,38.92,
77,1,1,,CCCV Chg,00:38:00,00:38:00,50.0006,54.3128,31.6665,31666468.98,31.6665,31666468.98,0.0000,0.00,1715.46,1715457228.80,1715.46,1715457228.80,0.0000,0.00,2024-07-01 13:25:54,2715.67,67204.1,67204129.0,0.00,Close,41.08,
81,1,1,,CCCV Chg,00:40:00,00:40:00,50.0001,54.3389,33.3331,33333125.69,33.3331,33333125.69,0.0000,0.00,1806,1805999581.87,1806,1805999581.87,0.0000,0.00,2024-07-01 13:27:54,2716.95,60385.9,60385906.6,0.00,Close,43.25,
85,1,1,,CCCV Chg,00:42:00,00:42:00,50.0009,54.3653,34.9998,34999782.40,34.9998,34999782.40,0.0000,0.00,1896.58,1896584351.29,1896.58,1896584351.29,0.0000,0.00,2024-07-01 13:29:54,2718.31,56306.2,56306162.2,0.00,Close,45.41,
89,1,1,,CCCV Chg,00:44:00,00:44:00,50.0011,54.3966,36.6664,36666439.11,36.6664,36666439.11,0.0000,0.00,1987.22,1987219000.89,1987.22,1987219000.89,0.0000,0.00,2024-07-01 13:31:54,2719.89,48449.2,48449157.6,0.00,Close,47.57,
93,1,1,,CCCV Chg,00:46:00,00:46:00,49.9967,54.4355,38.3331,38333098.67,38.3331,38333098.67,0.0000,0.00,2077.91,2077912996.98,2077.91,2077912996.98,0.0000,0.00,2024-07-01 13:33:54,2721.59,47892.3,47892270.8,0.00,Close,49.73,
97,1,1,,CCCV Chg,00:48:00,00:48:00,49.9986,54.4788,39.9997,39999749.69,39.9997,39999749.69,0.0000,0.00,2168.67,2168672893.16,2168.67,2168672893.16,0.0000,0.00,2024-07-01 13:35:54,2723.87,34434.7,34434703.4,0.00,Close,51.90,
101,1,1,,CCCV Chg,00:50:00,00:50:00,49.9978,54.5209,41.6664,41666400.71,41.6664,41666400.71,0.0000,0.00,2259.5,2259504878.93,2259.5,2259504878.93,0.0000,0.00,2024-07-01 13:37:54,2725.93,40452.7,40452694.7,0.00,Close,54.06,
105,1,1,,CCCV Chg,00:52:00,00:52:00,49.9956,54.5564,43.3331,43333054.58,43.3331,43333054.58,0.0000,0.00,2350.4,2350401672.53,2350.4,2350401672.53,0.0000,0.00,2024-07-01 13:39:54,2727.58,50812.5,50812531.2,0.00,Close,56.22,
109,1,1,,CCCV Chg,00:54:00,00:54:00,50.0020,54.5850,44.9997,44999694.22,44.9997,44999694.22,0.0000,0.00,2441.35,2441351987.20,2441.35,2441351987.20,0.0000,0.00,2024-07-01 13:41:54,2729.36,49602.7,49602709.0,0.00,Close,58.38,
113,1,1,,CCCV Chg,00:56:00,00:56:00,49.9973,54.6124,46.6663,46666336.71,46.6663,46666336.71,0.0000,0.00,2532.35,2532347812.98,2532.35,2532347812.98,0.0000,0.00,2024-07-01 13:43:54,2730.47,63130.3,63130289.6,0.00,Close,60.55,
117,1,1,,CCCV Chg,00:58:00,00:58:00,49.9987,54.6310,48.3330,48332976.36,48.3330,48332976.36,0.0000,0.00,2623.38,2623381868.09,2623.38,2623381868.09,0.0000,0.00,2024-07-01 13:45:54,2731.48,71837.9,71837915.7,0.00,Close,62.71,
121,1,1,,CCCV Chg,01:00:00,01:00:00,50.0022,54.6535,49.9996,49999616.00,49.9996,49999616.00,0.0000,0.00,2714.45,2714450511.64,2714.45,2714450511.64,0.0000,0.00,2024-07-01 13:47:54,2732.79,50199.3,50199303.9,0.00,Close,64.87,
125,1,1,,CCCV Chg,01:02:00,01:02:00,49.9979,54.6740,51.6663,51666267.02,51.6663,51666267.02,0.0000,0.00,2805.56,2805556292.27,2805.56,2805556292.27,0.0000,0.00,2024-07-01 13:49:54,2733.59,106835.9,106835874.6,0.00,Close,67.03,
129,1,1,,CCCV Chg,01:04:00,01:04:00,50.0009,54.6948,53.3329,53332912.36,53.3329,53332912.36,0.0000,0.00,2896.7,2896695751.11,2896.7,2896695751.11,0.0000,0.00,2024-07-01 13:51:54,2734.79,96899.0,96898976.7,0.00,Close,69.19,
133,1,1,,CCCV Chg,01:06:00,01:06:00,49.9983,54.7172,54.9996,54999557.69,54.9996,54999557.69,0.0000,0.00,2987.87,2987871800.89,2987.87,2987871800.89,0.0000,0.00,2024-07-01 13:53:54,2735.77,80126.9,80126906.0,0.00,Close,71.36,
137,1,1,,CCCV Chg,01:08:00,01:08:00,50.0017,54.7386,56.6662,56666203.02,56.6662,56666203.02,0.0000,0.00,3079.08,3079082257.07,3079.08,3079082257.07,0.0000,0.00,2024-07-01 13:55:54,2737.02,52082.5,52082488.9,0.00,Close,73.52,
141,1,1,,CCCV Chg,01:10:00,01:10:00,49.9932,54.7633,58.3329,58332859.73,58.3329,58332859.73,0.0000,0.00,3170.33,3170333127.11,3170.33,3170333127.11,0.0000,0.00,2024-07-01 13:57:54,2737.79,67205.0,67205046.6,0.00,Close,75.68,
145,1,1,,CCCV Chg,01:12:00,01:12:00,49.9992,54.7894,59.9995,59999505.07,59.9995,59999505.07,0.0000,0.00,3261.63,3261627323.73,3261.63,3261627323.73,0.0000,0.00,2024-07-01 13:59:54,2739.43,101624.4,101624368.6,0.00,Close,77.84,
149,1,1,,CCCV Chg,01:14:00,01:14:00,49.9980,54.8232,61.6662,61666161.78,61.6662,61666161.78,0.0000,0.00,3352.97,3352969580.09,3352.97,3352969580.09,0.0000,0.00,2024-07-01 14:01:54,2741.05,45788.1,45788053.7,0.00,Close,80.01,
153,1,1,,CCCV Chg,01:16:00,01:16:00,50.0016,54.8568,63.3328,63332807.11,63.3328,63332807.11,0.0000,0.00,3444.36,3444364629.33,3444.36,3444364629.33,0.0000,0.00,2024-07-01 14:03:54,2742.93,39308.1,39308075.5,0.00,Close,82.17,
157,1,1,,CCCV Chg,01:18:00,01:18:00,49.9977,54.8916,64.9995,64999458.13,64.9995,64999458.13,0.0000,0.00,3535.82,3535819389.16,3535.82,3535819389.16,0.0000,0.00,2024-07-01 14:05:54,2744.45,54111.7,54111676.8,0.00,Close,84.33,
161,1,1,,CCCV Chg,01:20:00,01:20:00,49.9984,54.9355,66.6661,66666097.78,66.6661,66666097.78,0.0000,0.00,3627.34,3627340413.16,3627.34,3627340413.16,0.0000,0.00,2024-07-01 14:07:54,2746.69,39307.0,39307002.1,0.00,Close,86.49,
165,1,1,,CCCV Chg,01:22:00,01:22:00,49.9986,54.9888,68.3328,68332754.49,68.3328,68332754.49,0.0000,0.00,3718.94,3718942264.89,3718.94,3718942264.89,0.0000,0.00,2024-07-01 14:09:54,2749.36,31327.8,31327812.9,0.00,Close,88.66,
169,1,1,,CCCV Chg,01:24:00,01:24:00,49.9942,55.0572,69.9994,69999405.51,69.9994,69999405.51,0.0000,0.00,3810.64,3810642784.71,3810.64,3810642784.71,0.0000,0.00,2024-07-01 14:11:54,2752.54,22401.4,22401376.3,0.00,Close,90.82,
173,1,1,,CCCV Chg,01:26:00,01:26:00,50.0005,55.1505,71.6661,71666050.84,71.6661,71666050.84,0.0000,0.00,3902.48,3902475104.71,3902.48,3902475104.71,0.0000,0.00,2024-07-01 14:13:54,2757.55,13660.8,13660794.2,0.00,Close,92.98,
177,1,1,,CCCV Chg,01:28:00,01:28:00,50.0001,55.2897,73.3327,73332696.18,73.3327,73332696.18,0.0000,0.00,3994.5,3994497115.02,3994.5,3994497115.02,0.0000,0.00,2024-07-01 14:15:54,2764.49,10064.0,10063974.2,0.00,Close,95.14,
181,1,1,,CCCV Chg,01:30:00,01:30:00,50.0003,55.5545,74.9994,74999352.89,74.9994,74999352.89,0.0000,0.00,4086.84,4086841708.09,4086.84,4086841708.09,0.0000,0.00,2024-07-01 14:17:54,2777.74,4878.9,4878921.7,0.00,Close,97.30,
185,1,1,,CCCV Chg,01:32:00,01:32:00,50.0004,56.3094,76.6660,76665998.22,76.6660,76665998.22,0.0000,0.00,4179.91,4179914114.84,4179.91,4179914114.84,0.0000,0.00,2024-07-01 14:19:54,2815.49,1361.6,1361615.1,0.00,Close,99.47,
189,1,2,,Rest,00:01:00,01:33:29,0.0000,54.5618,0.0000,0.00,0.0000,0.00,0.0000,0.00,0.0000,0.00,0.0000,0.00,0.0000,0.00,2024-07-01 14:21:23,0.0000,0.0,0.0,0.00,Close,0.00,
193,1,2,,Rest,00:03:00,01:35:29,0.0000,54.0790,0.0000,0.00,0.0000,0.00,0.0000,0.00,0.0000,0.00,0.0000,0.00,0.0000,0.00,2024-07-01 14:23:23,0.0000,0.0,0.0,0.00,Close,0.00,
197,1,2,,Rest,00:05:00,01:37:29,0.0000,53.8996,0.0000,0.00,0.0000,0.00,0.0000,0.00,0.0000,0.00,0.0000,0.00,0.0000,0.00,2024-07-01 14:25:23,0.0000,0.0,0.0,0.00,Close,0.00,
201,1,2,,Rest,00:07:00,01:39:29,0.0000,53.8054,0.0000,0.00,0.0000,0.00,0.0000,0.00,0.0000,0.00,0.0000,0.00,0.0000,0.00,2024-07-01 14:27:23,0.0000,0.0,0.0,0.00,Close,0.00,
205,1,2,,Rest,00:09:00,01:41:29,0.0000,53.7464,0.0000,0.00,0.0000,0.00,0.0000,0.00,0.0000,0.00,0.0000,0.00,0.0000,0.00,2024-07-01 14:29:23,0.0000,0.0,0.0,0.00,Close,0.00,
209,1,3,,CC DChg,00:00:30,01:42:59,-49.9960,52.5442,0.4167,416664.53,0.0000,0.00,0.4167,416664.53,21.9767,21976667.02,0.0000,0.00,21.9767,21976667.02,2024-07-01 14:30:53,-2627,-592.9,-592948.0,0.00,Close,0.41,
213,1,3,,CC DChg,00:02:30,01:44:59,-50.0012,52.2191,2.0833,2083325.16,0.0000,0.00,2.0833,2083325.16,109.1346,109134586.31,0.0000,0.00,109.1346,109134586.31,2024-07-01 14:32:53,-2611.02,-52083.3,-52083288.9,0.00,Close,2.05,
217,1,3,,CC DChg,00:04:30,01:46:59,-50.0047,52.2191,3.7500,3749982.58,0.0000,0.00,3.7500,3749982.58,196.1648,196164812.80,0.0000,0.00,196.1648,196164812.80,2024-07-01 14:34:53,-2611.2,4166641.8,4166641777.9,0.00,Close,3.70,
221,1,3,,CC DChg,00:06:30,01:48:59,-49.9963,52.2210,5.4166,5416646.04,0.0000,0.00,5.4166,5416646.04,283.1978,283197804.09,0.0000,0.00,283.1978,283197804.09,2024-07-01 14:36:53,-2610.85,462961.0,462960987.7,0.00,Close,5.34,
225,1,3,,CC DChg,00:08:30,01:50:59,-49.9978,52.2231,7.0780,7078035.91,0.0000,0.00,7.0780,7078035.91,370.0645,370064452.27,0.0000,0.00,370.0645,370064452.27,2024-07-01 14:52:28,-2611.04,-8122.2,-8122150.3,0.00,Close,6.97,
229,1,3,,CC DChg,00:10:30,01:52:59,-50.0005,52.1767,8.7447,8744696.89,0.0000,0.00,8.7447,8744696.89,457.0505,457050476.09,0.0000,0.00,457.0505,457050476.09,2024-07-01 14:54:28,-2608.86,-86805.2,-86805185.2,0.00,Close,8.62,
233,1,3,,CC DChg,00:12:30,01:54:59,-49.9974,52.1668,10.4114,10411358.58,0.0000,0.00,10.4114,10411358.58,544.0046,544004596.62,0.0000,0.00,544.0046,544004596.62,2024-07-01 14:56:28,-2608.2,-80127.9,-80127863.2,0.00,Close,10.26,
237,1,3,,CC DChg,00:14:30,01:56:59,-50.0018,52.1629,12.0780,12078025.96,0.0000,0.00,12.0780,12078025.96,630.9482,630948249.60,0.0000,0.00,630.9482,630948249.60,2024-07-01 14:58:28,-2608.24,-416667.0,-416667022.2,0.00,Close,11.90,
241,1,3,,CC DChg,00:16:30,01:58:59,-49.9959,52.1565,13.7447,13744688.36,0.0000,0.00,13.7447,13744688.36,717.8822,717882163.20,0.0000,0.00,717.8822,717882163.20,2024-07-01 15:00:28,-2607.61,-378785.6,-378785616.2,0.00,Close,13.54,
245,1,3,,CC DChg,00:18:30,02:00:59,-50.0006,52.1503,15.4114,15411355.02,0.0000,0.00,15.4114,15411355.02,804.8067,804806656.00,0.0000,0.00,804.8067,804806656.00,2024-07-01 15:02:28,-2607.55,-119048.1,-119048127.0,0.00,Close,15.19,
249,1,3,,CC DChg,00:20:30,02:02:59,-50.0046,52.1402,17.0780,17078021.69,0.0000,0.00,17.0780,17078021.69,891.7163,891716312.18,0.0000,0.00,891.7163,891716312.18,2024-07-01 15:04:28,-2607.25,-173610.7,-173610666.7,0.00,Close,16.83,
253,1,3,,CC DChg,00:22:30,02:04:59,-50.0000,52.1273,18.7447,18744686.93,0.0000,0.00,18.7447,18744686.93,978.6057,978605670.40,0.0000,0.00,978.6057,978605670.40,2024-07-01 15:06:28,-2606.37,-138888.5,-138888533.3,0.00,Close,18.47,
257,1,3,,CC DChg,00:24:30,02:06:59,-50.0011,52.1113,20.4113,20411346.49,0.0000,0.00,20.4113,20411346.49,1065.47,1065472455.11,0.0000,0.00,1065.47,1065472455.11,2024-07-01 15:08:28,-2605.62,-75757.1,-75757123.2,0.00,Close,20.11,
261,1,3,,CC DChg,00:26:30,02:08:59,-49.9996,52.0943,22.0780,22078008.89,0.0000,0.00,22.0780,22078008.89,1152.31,1152312570.31,0.0000,0.00,1152.31,1152312570.31,2024-07-01 15:10:28,-2604.69,-70621.0,-70621047.1,0.00,Close,21.76,
265,1,3,,CC DChg,00:28:30,02:10:59,-49.9973,52.0705,23.7447,23744672.71,0.0000,0.00,23.7447,23744672.71,1239.12,1239117824.00,0.0000,0.00,1239.12,1239117824.00,2024-07-01 15:12:28,-2603.38,-52742.5,-52742481.0,0.00,Close,23.40,
269,1,3,,CC DChg,00:30:30,02:12:59,-50.0007,52.0419,25.4113,25411330.84,0.0000,0.00,25.4113,25411330.84,1325.88,1325880570.31,0.0000,0.00,1325.88,1325880570.31,2024-07-01 15:14:28,-2602.13,-54824.0,-54824046.8,0.00,Close,25.04,
273,1,3,,CC DChg,00:32:30,02:14:59,-49.9983,52.0065,27.0780,27077990.40,0.0000,0.00,27.0780,27077990.40,1412.59,1412589249.42,0.0000,0.00,1412.59,1412589249.42,2024-07-01 15:16:28,-2600.24,-39682.2,-39682167.2,0.00,Close,26.68,
277,1,3,,CC DChg,00:34:30,02:16:59,-50.0033,51.9591,28.7447,28744658.49,0.0000,0.00,28.7447,28744658.49,1499.23,1499228842.67,0.0000,0.00,1499.23,1499228842.67,2024-07-01 15:18:28,-2598.13,-31328.5,-31328454.5,0.00,Close,28.32,
281,1,3,,CC DChg,00:36:30,02:18:59,-49.9971,51.9004,30.4113,30411318.04,0.0000,0.00,30.4113,30411318.04,1585.78,1585778414.93,0.0000,0.00,1585.78,1585778414.93,2024-07-01 15:20:28,-2594.87,-28153.1,-28153081.1,0.00,Close,29.97,
285,1,3,,CC DChg,00:38:30,02:20:59,-50.0013,51.8368,32.0780,32077980.44,0.0000,0.00,32.0780,32077980.44,1672.23,1672226770.49,0.0000,0.00,1672.23,1672226770.49,2024-07-01 15:22:28,-2591.91,-26539.4,-26539391.4,0.00,Close,31.61,
289,1,3,,CC DChg,00:40:30,02:22:59,-50.0031,51.7861,33.7446,33744645.69,0.0000,0.00,33.7446,33744645.69,1758.58,1758577550.22,0.0000,0.00,1758.58,1758577550.22,2024-07-01 15:24:28,-2589.46,-40453.5,-40453523.2,0.00,Close,33.25,
293,1,3,,CC DChg,00:42:30,02:24:59,-49.9982,51.7444,35.4113,35411308.09,0.0000,0.00,35.4113,35411308.09,1844.85,1844849322.67,0.0000,0.00,1844.85,1844849322.67,2024-07-01 15:26:28,-2587.13,-56306.5,-56306546.5,0.00,Close,34.89,
297,1,3,,CC DChg,00:44:30,02:26:59,-50.0000,51.7159,37.0780,37077967.64,0.0000,0.00,37.0780,37077967.64,1931.06,1931064479.29,0.0000,0.00,1931.06,1931064479.29,2024-07-01 15:28:28,-2585.79,-80126.9,-80126906.0,0.00,Close,36.54,
301,1,3,,CC DChg,00:46:30,02:28:59,-50.0002,51.6931,38.7446,38744630.04,0.0000,0.00,38.7446,38744630.04,2017.24,2017235217.07,0.0000,0.00,2017.24,2017235217.07,2024-07-01 15:30:28,-2584.66,-115740.4,-115740444.4,0.00,Close,38.18,
305,1,3,,CC DChg,00:48:30,02:30:59,-49.9978,51.6719,40.4113,40411298.13,0.0000,0.00,40.4113,40411298.13,2103.37,2103371366.40,0.0000,0.00,2103.37,2103371366.40,2024-07-01 15:32:28,-2583.48,-74405.6,-74405587.3,0.00,Close,39.82,
309,1,3,,CC DChg,00:50:30,02:32:59,-50.0010,51.6512,42.0780,42077952.00,0.0000,0.00,42.0780,42077952.00,2189.47,2189472199.11,0.0000,0.00,2189.47,2189472199.11,2024-07-01 15:34:28,-2582.61,-94696.1,-94696080.8,0.00,Close,41.46,
313,1,3,,CC DChg,00:52:30,02:34:59,-49.9988,51.6322,43.7446,43744617.24,0.0000,0.00,43.7446,43744617.24,2275.54,2275539353.60,0.0000,0.00,2275.54,2275539353.60,2024-07-01 15:36:28,-2581.55,-92592.4,-92592355.6,0.00,Close,43.10,
317,1,3,,CC DChg,00:54:30,02:36:59,-50.0014,51.6111,45.4113,45411279.64,0.0000,0.00,45.4113,45411279.64,2361.57,2361573193.96,0.0000,0.00,2361.57,2361573193.96,2024-07-01 15:38:28,-2580.63,-96898.3,-96898315.2,0.00,Close,44.75,
321,1,3,,CC DChg,00:56:30,02:38:59,-49.9904,51.5883,47.0779,47077947.73,0.0000,0.00,47.0779,47077947.73,2447.57,2447571535.64,0.0000,0.00,2447.57,2447571535.64,2024-07-01 15:40:28,-2578.92,-70622.3,-70622252.4,0.00,Close,46.39,
325,1,3,,CC DChg,00:58:30,02:40:59,-50.0062,51.5665,48.7446,48744607.29,0.0000,0.00,48.7446,48744607.29,2533.53,2533533286.40,0.0000,0.00,2533.53,2533533286.40,2024-07-01 15:42:28,-2578.64,-90579.5,-90579478.3,0.00,Close,48.03,
329,1,3,,CC DChg,01:00:30,02:42:59,-49.9904,51.5412,50.4113,50411269.69,0.0000,0.00,50.4113,50411269.69,2619.46,2619456261.69,0.0000,0.00,2619.46,2619456261.69,2024-07-01 15:44:28,-2576.57,-52743.2,-52743201.1,0.00,Close,49.67,
333,1,3,,CC DChg,01:02:30,02:44:59,-50.0017,51.5151,52.0779,52077926.40,0.0000,0.00,52.0779,52077926.40,2705.34,2705336820.62,0.0000,0.00,2705.34,2705336820.62,2024-07-01 15:46:28,-2575.84,-57869.4,-57869432.1,0.00,Close,51.32,
337,1,3,,CC DChg,01:04:30,02:46:59,-49.9915,51.4918,53.7446,53744594.49,0.0000,0.00,53.7446,53744594.49,2791.17,2791174781.16,0.0000,0.00,2791.17,2791174781.16,2024-07-01 15:48:28,-2574.15,-86805.3,-86805333.3,0.00,Close,52.96,
341,1,3,,CC DChg,01:06:30,02:48:59,-49.9977,51.4653,55.4113,55411256.89,0.0000,0.00,55.4113,55411256.89,2876.97,2876969779.20,0.0000,0.00,2876.97,2876969779.20,2024-07-01 15:50:28,-2573.15,-69443.3,-69443318.5,0.00,Close,54.60,
345,1,3,,CC DChg,01:08:30,02:50:59,-49.9950,51.4357,57.0779,57077919.29,0.0000,0.00,57.0779,57077919.29,2962.72,2962720176.36,0.0000,0.00,2962.72,2962720176.36,2024-07-01 15:52:28,-2571.53,-57869.4,-57869432.1,0.00,Close,56.24,
349,1,3,,CC DChg,01:10:30,02:52:59,-50.0026,51.4080,58.7446,58744587.38,0.0000,0.00,58.7446,58744587.38,3048.42,3048423606.04,0.0000,0.00,3048.42,3048423606.04,2024-07-01 15:54:28,-2570.54,-56306.2,-56306162.2,0.00,Close,57.89,
353,1,3,,CC DChg,01:12:30,02:54:59,-49.9956,51.3788,60.4112,60411244.09,0.0000,0.00,60.4112,60411244.09,3134.08,3134077519.64,0.0000,0.00,3134.08,3134077519.64,2024-07-01 15:56:28,-2568.72,-57869.4,-57869432.1,0.00,Close,59.53,
357,1,3,,CC DChg,01:14:30,02:56:59,-50.0005,51.3435,62.0779,62077912.18,0.0000,0.00,62.0779,62077912.18,3219.68,3219679186.49,0.0000,0.00,3219.68,3219679186.49,2024-07-01 15:58:28,-2567.2,-40064.0,-40064000.0,0.00,Close,61.17,
361,1,3,,CC DChg,01:16:30,02:58:59,-49.9975,51.3105,63.7446,63744574.58,0.0000,0.00,63.7446,63744574.58,3305.22,3305224783.64,0.0000,0.00,3305.22,3305224783.64,2024-07-01 16:00:28,-2565.4,-52742.5,-52742481.0,0.00,Close,62.81,
365,1,3,,CC DChg,01:18:30,03:00:59,-50.0001,51.2720,65.4113,65411254.04,0.0000,0.00,65.4113,65411254.04,3390.71,3390711034.31,0.0000,0.00,3390.71,3390711034.31,2024-07-01 16:02:28,-2563.6,-33602.5,-33602523.3,0.00,Close,64.45,
369,1,3,,CC DChg,01:20:30,03:02:59,-50.0004,51.2248,67.0779,67077922.13,0.0000,0.00,67.0779,67077922.13,3476.13,3476128108.09,0.0000,0.00,3476.13,3476128108.09,2024-07-01 16:04:28,-2561.26,-27593.4,-27593371.6,0.00,Close,66.10,
373,1,3,,CC DChg,01:22:30,03:04:59,-50.0028,51.1700,68.7446,68744601.60,0.0000,0.00,68.7446,68744601.60,3561.46,3561461441.42,0.0000,0.00,3561.46,3561461441.42,2024-07-01 16:06:28,-2558.64,-23277.1,-23277090.0,0.00,Close,67.74,
377,1,3,,CC DChg,01:24:30,03:06:59,-50.0018,51.1109,70.4113,70411286.76,0.0000,0.00,70.4113,70411286.76,3646.7,3646699747.56,0.0000,0.00,3646.7,3646699747.56,2024-07-01 16:08:28,-2555.64,-24950.0,-24950035.9,0.00,Close,69.38,
381,1,3,,CC DChg,01:26:30,03:08:59,-49.9994,51.0482,72.0780,72077971.91,0.0000,0.00,72.0780,72077971.91,3731.83,3731833924.27,0.0000,0.00,3731.83,3731833924.27,2024-07-01 16:10:28,-2552.38,-25406.8,-25406785.9,0.00,Close,71.02,
385,1,3,,CC DChg,01:28:30,03:10:59,-50.0014,50.9768,73.7446,73744634.31,0.0000,0.00,73.7446,73744634.31,3816.85,3816853777.07,0.0000,0.00,3816.85,3816853777.07,2024-07-01 16:12:28,-2548.91,-24654.8,-24654769.2,0.00,Close,72.67,
389,1,3,,CC DChg,01:30:30,03:12:59,-50.0069,50.9074,75.4113,75411296.71,0.0000,0.00,75.4113,75411296.71,3901.76,3901757849.60,0.0000,0.00,3901.76,3901757849.60,2024-07-01 16:14:28,-2545.72,-23674.2,-23674181.8,0.00,Close,74.31,
393,1,3,,CC DChg,01:32:30,03:14:59,-49.9980,50.8328,77.0780,77077964.80,0.0000,0.00,77.0780,77077964.80,3986.54,3986542500.98,0.0000,0.00,3986.54,3986542500.98,2024-07-01 16:16:28,-2541.54,-22522.5,-22522464.9,0.00,Close,75.95,
397,1,3,,CC DChg,01:34:30,03:16:59,-49.9996,50.7473,78.7446,78744632.89,0.0000,0.00,78.7446,78744632.89,4071.19,4071194624.00,0.0000,0.00,4071.19,4071194624.00,2024-07-01 16:18:28,-2537.35,-17361.1,-17361066.7,0.00,Close,77.59,
401,1,3,,CC DChg,01:36:30,03:18:59,-50.0024,50.6548,80.4113,80411295.29,0.0000,0.00,80.4113,80411295.29,4155.7,4155698198.76,0.0000,0.00,4155.7,4155698198.76,2024-07-01 16:20:28,-2532.86,-18115.9,-18115895.7,0.00,Close,79.24,
405,1,3,,CC DChg,01:38:30,03:20:59,-49.9996,50.5403,82.0780,82077963.38,0.0000,0.00,82.0780,82077963.38,4240.03,4240027739.02,0.0000,0.00,4240.03,4240027739.02,2024-07-01 16:22:28,-2526.99,-13888.9,-13888853.3,0.00,Close,80.88,
409,1,3,,CC DChg,01:40:30,03:22:59,-50.0002,50.4183,83.7446,83744620.09,0.0000,0.00,83.7446,83744620.09,4324.16,4324163219.91,0.0000,0.00,4324.16,4324163219.91,2024-07-01 16:24:28,-2520.92,-13061.6,-13061617.6,0.00,Close,82.52,
413,1,3,,CC DChg,01:42:30,03:24:59,-49.9959,50.2784,85.4113,85411282.49,0.0000,0.00,85.4113,85411282.49,4408.08,4408079883.38,0.0000,0.00,4408.08,4408079883.38,2024-07-01 16:26:28,-2513.71,-10936.3,-10936254.3,0.00,Close,84.16,
417,1,3,,CC DChg,01:44:30,03:26:59,-50.0046,50.1404,87.0779,87077944.89,0.0000,0.00,87.0779,87077944.89,4491.76,4491757704.53,0.0000,0.00,4491.76,4491757704.53,2024-07-01 16:28:28,-2507.25,-14619.8,-14619845.6,0.00,Close,85.80,
421,1,3,,CC DChg,01:46:30,03:28:59,-50.0062,50.0562,88.7446,88744612.98,0.0000,0.00,88.7446,88744612.98,4575.25,4575245835.38,0.0000,0.00,4575.25,4575245835.38,2024-07-01 16:30:28,-2503.12,-27412.2,-27412210.5,0.00,Close,87.45,
425,1,3,,CC DChg,01:48:30,03:30:59,-49.9968,49.9832,90.4113,90411269.69,0.0000,0.00,90.4113,90411269.69,4658.61,4658611632.36,0.0000,0.00,4658.61,4658611632.36,2024-07-01 16:32:28,-2499,-20729.1,-20729065.8,0.00,Close,89.09,
429,1,3,,CC DChg,01:50:30,03:32:59,-50.0029,49.9001,92.0779,92077937.78,0.0000,0.00,92.0779,92077937.78,4741.85,4741848905.96,0.0000,0.00,4741.85,4741848905.96,2024-07-01 16:34:28,-2495.15,-17883.1,-17883132.1,0.00,Close,90.73,
433,1,3,,CC DChg,01:52:30,03:34:59,-50.0001,49.7905,93.7446,93744594.49,0.0000,0.00,93.7446,93744594.49,4824.93,4824930349.51,0.0000,0.00,4824.93,4824930349.51,2024-07-01 16:36:28,-2489.53,-13020.8,-13020800.0,0.00,Close,92.37,
437,1,3,,CC DChg,01:54:30,03:36:59,-50.0056,49.5998,95.4113,95411262.58,0.0000,0.00,95.4113,95411262.58,4907.78,4907775863.47,0.0000,0.00,4907.78,4907775863.47,2024-07-01 16:38:28,-2480.27,-6480.0,-6480024.9,0.00,Close,94.02,
441,1,3,,CC DChg,01:56:30,03:38:59,-49.9980,49.0267,97.0779,97077907.91,0.0000,0.00,97.0779,97077907.91,4990.04,4990043568.36,0.0000,0.00,4990.04,4990043568.36,2024-07-01 16:40:28,-2451.24,-2116.1,-2116070.2,0.00,Close,95.66,
445,1,3,,CC DChg,01:58:30,03:40:59,-50.0074,47.9795,98.7446,98744581.69,0.0000,0.00,98.7446,98744581.69,5070.94,5070935745.42,0.0000,0.00,5070.94,5070935745.42,2024-07-01 16:42:28,-2399.33,-1407.2,-1407178.7,0.00,Close,97.30,
449,1,3,,CC DChg,02:00:30,03:42:59,-49.9998,46.4559,100.4113,100411255.47,0.0000,0.00,100.4113,100411255.47,5149.71,5149712930.13,0.0000,0.00,5149.71,5149712930.13,2024-07-01 16:44:28,-2322.79,-946.1,-946107.2,0.00,Close,98.94,
453,1,4,0,Rest,00:00:00,03:44:16,0.0000,43.3260,0.0000,0.00,0.0000,0.00,0.0000,0.00,0.0000,0.00,0.0000,0.00,0.0000,0.00,2024-07-01 16:45:45,0.0000,0.0,0.0,0.00,Close,0.00,
457,1,4,,Rest,00:02:00,03:46:16,0.0000,11.5004,0.0000,0.00,0.0000,0.00,0.0000,0.00,0.0000,0.00,0.0000,0.00,0.0000,0.00,2024-07-01 16:47:45,0.0000,0.0,0.0,0.00,Close,0.00,
461,1,4,,Rest,00:04:00,03:48:16,0.0000,11.3172,0.0000,0.00,0.0000,0.00,0.0000,0.00,0.0000,0.00,0.0000,0.00,0.0000,0.00,2024-07-01 16:49:45,0.0000,0.0,0.0,0.00,Close,0.00,
465,1,4,,Rest,00:06:00,03:50:16,0.0000,11.1625,0.0000,0.00,0.0000,0.00,0.0000,0.00,0.0000,0.00,0.0000,0.00,0.0000,0.00,2024-07-01 16:51:45,0.0000,0.0,0.0,0.00,Close,0.00,
469,1,4,,Rest,00:08:00,03:52:16,0.0000,11.0390,0.0000,0.00,0.0000,0.00,0.0000,0.00,0.0000,0.00,0.0000,0.00,0.0000,0.00,2024-07-01 16:53:45,0.0000,0.0,0.0,0.00,Close,0.00,
473,1,4,,Rest,00:10:00,03:54:16,0.0000,10.9432,0.0000,0.00,0.0000,0.00,0.0000,0.00,0.0000,0.00,0.0000,0.00,0.0000,0.00,2024-07-01 16:55:45,0.0000,0.0,0.0,0.00,Close,0.00,
477,1,5,,CCCV Chg,00:01:30,03:55:46,50.0076,49.3762,1.2500,1249987.91,1.2500,1249987.91,0.0000,0.00,60.6718,60671761.07,60.6718,60671761.07,0.0000,0.00,2024-07-01 16:57:15,2469.19,839.0,839031.1,0.00,Close,1.23,
481,1,5,,CCCV Chg,00:03:30,03:57:46,50.0030,50.8287,2.9166,2916642.84,2.9166,2916642.84,0.0000,0.00,144.2652,144265204.62,144.2652,144265204.62,0.0000,0.00,2024-07-01 16:59:15,2541.59,1351.5,1351490.5,0.00,Close,2.87,
485,1,5,,CCCV Chg,00:05:30,03:59:46,49.9991,51.8081,4.5833,4583298.49,4.5833,4583298.49,0.0000,0.00,229.8398,229839758.22,229.8398,229839758.22,0.0000,0.00,2024-07-01 17:01:15,2590.36,1921.9,1921882.7,0.00,Close,4.51,
489,1,5,,CCCV Chg,00:07:30,04:01:46,49.9993,52.4171,6.2500,6249954.84,6.2500,6249954.84,0.0000,0.00,316.7655,316765479.82,316.7655,316765479.82,0.0000,0.00,2024-07-01 17:03:15,2620.82,4282.3,4282251.9,0.00,Close,6.15,
493,1,5,,CCCV Chg,00:09:30,04:03:46,50.0019,52.5307,7.9166,7916607.29,7.9166,7916607.29,0.0000,0.00,404.2494,404249395.20,404.2494,404249395.20,0.0000,0.00,2024-07-01 17:05:15,2626.63,24084.5,24084511.2,0.00,Close,7.79,
497,1,5,,CCCV Chg,00:11:30,04:05:46,50.0015,52.5904,9.5833,9583259.02,9.5833,9583259.02,0.0000,0.00,491.8507,491850683.73,491.8507,491850683.73,0.0000,0.00,2024-07-01 17:07:15,2629.6,27412.0,27411976.6,0.00,Close,9.43,
501,1,5,,CCCV Chg,00:13:30,04:07:46,50.0063,52.6595,11.2499,11249907.91,11.2499,11249907.91,0.0000,0.00,579.5581,579558149.69,579.5581,579558149.69,0.0000,0.00,2024-07-01 17:09:15,2633.3,24366.3,24366284.6,0.00,Close,11.07,
505,1,5,,CCCV Chg,00:15:30,04:09:46,49.9979,52.7359,12.9166,12916558.22,12.9166,12916558.22,0.0000,0.00,667.3859,667385901.51,667.3859,667385901.51,0.0000,0.00,2024-07-01 17:11:15,2636.69,21701.0,21701037.0,0.00,Close,12.71,
509,1,5,,CCCV Chg,00:17:30,04:11:46,49.9998,52.8416,14.5832,14583214.93,14.5832,14583214.93,0.0000,0.00,755.3655,755365478.40,755.3655,755365478.40,0.0000,0.00,2024-07-01 17:13:15,2642.07,14172.3,14172250.9,0.00,Close,14.35,
513,1,5,,CCCV Chg,00:19:30,04:13:46,49.9967,52.9734,16.2499,16249867.38,16.2499,16249867.38,0.0000,0.00,843.5417,843541708.80,843.5417,843541708.80,0.0000,0.00,2024-07-01 17:15:15,2648.49,12327.3,12327342.5,0.00,Close,15.99,
517,1,5,,CCCV Chg,00:21:30,04:15:46,49.9927,53.1219,17.9165,17916521.24,17.9165,17916521.24,0.0000,0.00,931.9534,931953413.69,931.9534,931953413.69,0.0000,0.00,2024-07-01 17:17:15,2655.71,11446.9,11446896.2,0.00,Close,17.62,
521,1,5,,CCCV Chg,00:23:30,04:17:46,49.9998,53.2675,19.5832,19583173.69,19.5832,19583173.69,0.0000,0.00,1020.61,1020611151.64,1020.61,1020611151.64,0.0000,0.00,2024-07-01 17:19:15,2663.36,10993.7,10993665.2,0.00,Close,19.26,
525,1,5,,CCCV Chg,00:25:30,04:19:46,50.0022,53.3907,21.2498,21249828.98,21.2498,21249828.98,0.0000,0.00,1109.49,1109492895.29,1109.49,1109492895.29,0.0000,0.00,2024-07-01 17:21:15,2669.65,12899.8,12899775.7,0.00,Close,20.90,
529,1,5,,CCCV Chg,00:27:30,04:21:46,50.0021,53.5079,22.9165,22916484.27,22.9165,22916484.27,0.0000,0.00,1198.57,1198574614.76,1198.57,1198574614.76,0.0000,0.00,2024-07-01 17:23:15,2675.51,14076.5,14076492.5,0.00,Close,22.54,
533,1,5,,CCCV Chg,00:29:30,04:23:46,50.0019,53.6202,24.5831,24583136.71,24.5831,24583136.71,0.0000,0.00,1287.85,1287850939.73,1287.85,1287850939.73,0.0000,0.00,2024-07-01 17:25:15,2681.11,14827.8,14827754.8,0.00,Close,24.18,
537,1,5,,CCCV Chg,00:31:30,04:25:46,49.9977,53.7089,26.2498,26249790.58,26.2498,26249790.58,0.0000,0.00,1377.3,1377296384.00,1377.3,1377296384.00,0.0000,0.00,2024-07-01 17:27:15,2685.32,21477.5,21477461.6,0.00,Close,25.82,
541,1,5,,CCCV Chg,00:33:30,04:27:46,50.0016,53.7788,27.9164,27916447.29,27.9164,27916447.29,0.0000,0.00,1466.87,1466871170.84,1466.87,1466871170.84,0.0000,0.00,2024-07-01 17:29:15,2689.02,27593.7,27593748.3,0.00,Close,27.46,
545,1,5,,CCCV Chg,00:35:30,04:29:46,50.0037,53.8436,29.5831,29583101.16,29.5831,29583101.16,0.0000,0.00,1556.56,1556559007.29,1556.56,1556559007.29,0.0000,0.00,2024-07-01 17:31:15,2692.38,28934.9,28934913.6,0.00,Close,29.10,
549,1,5,,CCCV Chg,00:37:30,04:31:46,50.0017,53.8979,31.2498,31249752.18,31.2498,31249752.18,0.0000,0.00,1646.35,1646346240.00,1646.35,1646346240.00,0.0000,0.00,2024-07-01 17:33:15,2694.99,32808.1,32808091.0,0.00,Close,30.74,
553,1,5,,CCCV Chg,00:39:22,04:33:38,50.0019,54.0927,32.8053,32805290.67,32.8053,32805290.67,0.0000,0.00,1730.2,1730199187.91,1730.2,1730199187.91,0.0000,0.00,2024-06-16 09:29:07,2704.74,2901.6,2901551.2,0.00,Close,32.27,
557,1,5,,CCCV Chg,00:41:22,04:35:38,49.9998,54.1691,34.4720,34471950.22,34.4720,34471950.22,0.0000,0.00,1820.46,1820456095.29,1820.46,1820456095.29,0.0000,0.00,2024-06-16 09:31:07,2708.44,-4166684.4,-4166684444.6,0.00,Close,33.91,
561,1,5,,CCCV Chg,00:43:22,04:37:38,49.9993,54.1565,36.1386,36138606.93,36.1386,36138606.93,0.0000,0.00,1910.73,1910725745.78,1910.73,1910725745.78,0.0000,0.00,2024-06-16 09:33:07,2707.78,-166666.2,-166666240.0,0.00,Close,35.55,
565,1,5,,CCCV Chg,00:45:22,04:39:38,50.0040,54.1505,37.8053,37805266.49,37.8053,37805266.49,0.0000,0.00,2000.98,2000980104.53,2000.98,2000980104.53,0.0000,0.00,2024-06-16 09:35:07,2707.74,-189393.5,-189393454.5,0.00,Close,37.19,
569,1,5,,CCCV Chg,00:47:22,04:41:38,49.9958,54.1461,39.4719,39471914.67,39.4719,39471914.67,0.0000,0.00,2091.23,2091227363.56,2091.23,2091227363.56,0.0000,0.00,2024-06-16 09:37:07,2707.08,-148808.1,-148808127.0,0.00,Close,38.83,
573,1,5,,CCCV Chg,00:49:22,04:43:38,50.0004,54.1471,41.1386,41138577.07,41.1386,41138577.07,0.0000,0.00,2181.47,2181471709.87,2181.47,2181471709.87,0.0000,0.00,2024-06-16 09:39:07,2707.37,2083313.8,2083313777.8,0.00,Close,40.47,
577,1,5,,CCCV Chg,00:51:22,04:45:38,49.9996,54.1545,42.8052,42805236.62,42.8052,42805236.62,0.0000,0.00,2271.72,2271722245.69,2271.72,2271722245.69,0.0000,0.00,2024-06-16 09:41:07,2707.71,154321.6,154321646.1,0.00,Close,42.11,
581,1,5,,CCCV Chg,00:53:22,04:47:38,50.0012,54.1599,44.4719,44471884.80,44.4719,44471884.80,0.0000,0.00,2361.98,2361982793.96,2361.98,2361982793.96,0.0000,0.00,2024-06-16 09:43:07,2708.06,347219.0,347218963.0,0.00,Close,43.75,
585,1,5,,CCCV Chg,00:55:22,04:49:38,50.0049,54.1691,46.1385,46138538.67,46.1385,46138538.67,0.0000,0.00,2452.26,2452256449.42,2452.26,2452256449.42,0.0000,0.00,2024-06-16 09:45:07,2708.72,173609.5,173609481.5,0.00,Close,45.39,
589,1,5,,CCCV Chg,00:57:22,04:51:38,49.9968,54.1810,47.8052,47805195.38,47.8052,47805195.38,0.0000,0.00,2542.55,2542548127.29,2542.55,2542548127.29,0.0000,0.00,2024-06-16 09:47:07,2708.88,115740.4,115740444.4,0.00,Close,47.03,
593,1,5,,CCCV Chg,00:59:22,04:53:38,50.0011,54.1942,49.4718,49471846.40,49.4718,49471846.40,0.0000,0.00,2632.86,2632859283.91,2632.86,2632859283.91,0.0000,0.00,2024-06-16 09:49:07,2709.77,109647.3,109647345.0,0.00,Close,48.67,
597,1,5,,CCCV Chg,01:01:22,04:55:38,49.9980,54.2087,51.1385,51138508.80,51.1385,51138508.80,0.0000,0.00,2723.19,2723194288.36,2723.19,2723194288.36,0.0000,0.00,2024-06-16 09:51:07,2710.32,160256.0,160256000.0,0.00,Close,50.31,
601,1,5,,CCCV Chg,01:03:22,04:57:38,49.9961,54.2258,52.8052,52805159.82,52.8052,52805159.82,0.0000,0.00,2813.56,2813555507.20,2813.56,2813555507.20,0.0000,0.00,2024-06-16 09:53:07,2711.08,112610.8,112610786.8,0.00,Close,51.95,
605,1,5,,CCCV Chg,01:05:22,04:59:38,49.9972,54.2438,54.4718,54471822.22,54.4718,54471822.22,0.0000,0.00,2903.95,2903945307.02,2903.95,2903945307.02,0.0000,0.00,2024-06-16 09:55:07,2712.04,104166.4,104166400.0,0.00,Close,53.58,
609,1,5,,CCCV Chg,01:07:22,05:01:38,49.9998,54.2634,56.1385,56138473.24,56.1385,56138473.24,0.0000,0.00,2994.37,2994367146.67,2994.37,2994367146.67,0.0000,0.00,2024-06-16 09:57:07,2713.16,106835.9,106835874.6,0.00,Close,55.22,
613,1,5,,CCCV Chg,01:09:22,05:03:38,49.9993,54.2886,57.8051,57805124.27,57.8051,57805124.27,0.0000,0.00,3084.83,3084825759.29,3084.83,3084825759.29,0.0000,0.00,2024-06-16 09:59:07,2714.39,65103.1,65103111.1,0.00,Close,56.86,
617,1,5,,CCCV Chg,01:11:22,05:05:38,50.0001,54.3173,59.4718,59471780.98,59.4718,59471780.98,0.0000,0.00,3175.33,3175330247.11,3175.33,3175330247.11,0.0000,0.00,2024-06-16 10:01:07,2715.87,57870.2,57870222.2,0.00,Close,58.50,
621,1,5,,CCCV Chg,01:13:22,05:07:38,49.9986,54.3465,61.1384,61138437.69,61.1384,61138437.69,0.0000,0.00,3265.88,3265881702.40,3265.88,3265881702.40,0.0000,0.00,2024-06-16 10:03:07,2717.25,50200.7,50200674.7,0.00,Close,60.14,
625,1,5,,CCCV Chg,01:15:22,05:09:38,49.9982,54.3834,62.8051,62805094.40,62.8051,62805094.40,0.0000,0.00,3356.49,3356488863.29,3356.49,3356488863.29,0.0000,0.00,2024-06-16 10:05:07,2719.07,41666.6,41666560.0,0.00,Close,61.78,
629,1,5,,CCCV Chg,01:17:22,05:11:38,49.9953,54.4263,64.4717,64471739.73,64.4717,64471739.73,0.0000,0.00,3447.16,3447162288.36,3447.16,3447162288.36,0.0000,0.00,2024-06-16 10:07:07,2721.06,38941.2,38941242.0,0.00,Close,63.42,
633,1,5,,CCCV Chg,01:19:22,05:13:38,49.9962,54.4735,66.1384,66138390.76,66.1384,66138390.76,0.0000,0.00,3537.91,3537910715.73,3537.91,3537910715.73,0.0000,0.00,2024-06-16 10:09:07,2723.47,35612.0,35611958.2,0.00,Close,65.06,
637,1,5,,CCCV Chg,01:21:22,05:15:38,49.9983,54.5133,67.8050,67805041.78,67.8050,67805041.78,0.0000,0.00,3628.73,3628732689.07,3628.73,3628732689.07,0.0000,0.00,2024-06-16 10:11:07,2725.57,46817.0,46816998.8,0.00,Close,66.70,
641,1,5,,CCCV Chg,01:23:22,05:17:38,50.0008,54.5458,69.4717,69471687.11,69.4717,69471687.11,0.0000,0.00,3719.62,3719615101.16,3719.62,3719615101.16,0.0000,0.00,2024-06-16 10:13:07,2727.33,53418.7,53418666.7,0.00,Close,68.34,
645,1,5,,CCCV Chg,01:25:22,05:19:38,49.9990,54.5709,71.1383,71138326.76,71.1383,71138326.76,0.0000,0.00,3810.54,3810544844.80,3810.54,3810544844.80,0.0000,0.00,2024-06-16 10:15:07,2728.49,58685.3,58685295.8,0.00,Close,69.98,
649,1,5,,CCCV Chg,01:27:22,05:21:38,49.9989,54.5908,72.8050,72804977.78,72.8050,72804977.78,0.0000,0.00,3901.51,3901510997.33,3901.51,3901510997.33,0.0000,0.00,2024-06-16 10:17:07,2729.48,81699.1,81699137.3,0.00,Close,71.62,
653,1,5,,CCCV Chg,01:29:22,05:23:38,50.0006,54.6084,74.4716,74471611.73,74.4716,74471611.73,0.0000,0.00,3992.51,3992508825.60,3992.51,3992508825.60,0.0000,0.00,2024-06-16 10:19:07,2730.45,81695.8,81695790.8,0.00,Close,73.26,
657,1,5,,CCCV Chg,01:31:22,05:25:38,50.0005,54.6283,76.1383,76138268.44,76.1383,76138268.44,0.0000,0.00,4083.54,4083536145.07,4083.54,4083536145.07,0.0000,0.00,2024-06-16 10:21:07,2731.44,57867.9,57867851.9,0.00,Close,74.90,
661,1,5,,CCCV Chg,01:33:22,05:27:38,49.9975,54.6462,77.8049,77804913.78,77.8049,77804913.78,0.0000,0.00,4174.6,4174595504.36,4174.6,4174595504.36,0.0000,0.00,2024-06-16 10:23:07,2732.17,92589.8,92589827.2,0.00,Close,76.54,
665,1,5,,CCCV Chg,01:35:22,05:29:38,49.9957,54.6621,79.4716,79471553.42,79.4716,79471553.42,0.0000,0.00,4265.69,4265685447.11,4265.69,4265685447.11,0.0000,0.00,2024-06-16 10:25:07,2732.87,143671.9,143671908.0,0.00,Close,78.18,
669,1,5,,CCCV Chg,01:37:22,05:31:38,49.9975,54.6843,81.1382,81138204.44,81.1382,81138204.44,0.0000,0.00,4356.81,4356809250.13,4356.81,4356809250.13,0.0000,0.00,2024-06-16 10:27:07,2734.08,101624.4,101624368.6,0.00,Close,79.82,
673,1,5,,CCCV Chg,01:39:22,05:33:38,49.9957,54.7094,82.8048,82804844.09,82.8048,82804844.09,0.0000,0.00,4447.97,4447970554.31,4447.97,4447970554.31,0.0000,0.00,2024-06-16 10:29:07,2735.24,77159.2,77159242.8,0.00,Close,81.46,
677,1,5,,CCCV Chg,01:41:22,05:35:38,50.0030,54.7370,84.4715,84471495.11,84.4715,84471495.11,0.0000,0.00,4539.17,4539174456.89,4539.17,4539174456.89,0.0000,0.00,2024-06-16 10:31:07,2737.02,44803.4,44803364.4,0.00,Close,83.10,
681,1,5,,CCCV Chg,01:43:22,05:37:38,49.9982,54.7613,86.1381,86138134.76,86.1381,86138134.76,0.0000,0.00,4630.42,4630420593.78,4630.42,4630420593.78,0.0000,0.00,2024-06-16 10:33:07,2737.97,83332.0,83331982.2,0.00,Close,84.74,
685,1,5,,CCCV Chg,01:45:22,05:39:38,50.0060,54.7929,87.8048,87804774.40,87.8048,87804774.40,0.0000,0.00,4721.71,4721714426.31,4721.71,4721714426.31,0.0000,0.00,2024-06-16 10:35:07,2739.97,56305.4,56305393.4,0.00,Close,86.38,
689,1,5,,CCCV Chg,01:47:22,05:41:38,49.9990,54.8228,89.4714,89471419.73,89.4714,89471419.73,0.0000,0.00,4813.06,4813057046.76,4813.06,4813057046.76,0.0000,0.00,2024-06-16 10:37:07,2741.08,51440.2,51440197.5,0.00,Close,88.01,
693,1,5,,CCCV Chg,01:49:22,05:43:38,50.0003,54.8590,91.1381,91138059.38,91.1381,91138059.38,0.0000,0.00,4904.46,4904456465.07,4904.46,4904456465.07,0.0000,0.00,2024-06-16 10:39:07,2742.97,45786.2,45786178.3,0.00,Close,89.65,
697,1,5,,CCCV Chg,01:51:22,05:45:38,49.9960,54.9016,92.8047,92804710.40,92.8047,92804710.40,0.0000,0.00,4995.92,4995923603.91,4995.92,4995923603.91,0.0000,0.00,2024-06-16 10:41:07,2744.86,41666.6,41666560.0,0.00,Close,91.29,
701,1,5,,CCCV Chg,01:53:22,05:47:38,50.0016,54.9585,94.4714,94471361.42,94.4714,94471361.42,0.0000,0.00,5087.47,5087471570.49,5087.47,5087471570.49,0.0000,0.00,2024-06-16 10:43:07,2748.01,26709.3,26709333.3,0.00,Close,92.93,
705,1,5,,CCCV Chg,01:55:22,05:49:38,50.0008,55.0365,96.1380,96138001.07,96.1380,96138001.07,0.0000,0.00,5179.13,5179129856.00,5179.13,5179129856.00,0.0000,0.00,2024-06-16 10:45:07,2751.87,19200.7,19200655.4,0.00,Close,94.57,
709,1,5,,CCCV Chg,01:57:22,05:51:38,50.0011,55.1619,97.8046,97804640.71,97.8046,97804640.71,0.0000,0.00,5270.95,5270953437.87,5270.95,5270953437.87,0.0000,0.00,2024-06-16 10:47:07,2758.16,11870.5,11870490.7,0.00,Close,96.21,
713,1,5,,CCCV Chg,01:59:22,05:53:38,49.9992,55.3985,99.4713,99471291.73,99.4713,99471291.73,0.0000,0.00,5363.06,5363062829.51,5363.06,5363062829.51,0.0000,0.00,2024-06-16 10:49:07,2769.88,5432.4,5432406.8,0.00,Close,97.85,
717,1,5,,CCCV Chg,02:01:22,05:55:38,49.9928,56.0686,101.1379,101137942.76,101.1379,101137942.76,0.0000,0.00,5455.82,5455824304.36,5455.82,5455824304.36,0.0000,0.00,2024-06-16 10:51:07,2803.02,1545.5,1545537.8,0.00,Close,99.49,
719,1,5,,CCCV Chg,02:01:59,05:56:16,1.7591,58.4247,101.6550,101655005.87,101.6550,101655005.87,0.0000,0.00,5484.97,5484971076.27,5484.97,5484971076.27,0.0000,0.00,2024-06-16 10:51:44,102.7743,54.4,54375.0,0.00,Close,100.00,