File: ZIPBATT5107240003.csv
DataPoint,Cycle Index,Step Index,Step started to end the identification ,Step Type,Time,Total Time,Current(A),Voltage(V),Capacity(Ah),Spec. Cap.(mAh/g),Chg. Cap.(Ah),Chg. Spec. Cap.(mAh/g),DChg. Cap.(Ah),DChg. Spec. Cap.(mAh/g),Energy(Wh),Spec. Energy(mWh/g),Chg. Energy(Wh),Chg. Spec. Energy(mWh/g),DChg. Energy(Wh),DChg. Spec. Energy(mWh/g),Date,Power(W),dQ/dV(mAh/V),dQm/dV(mAh/V.g),Contact resistance(mÎ©),Module start-stop switch,SOC/DOD(%),LgD
1,1,1,0,CCCV Chg,00:00:00,00:00:00,50.0155,52.9729,0.0000,0.00,0.0000,0.00,0.0000,0.00,0.0000,0.00,0.0000,0.00,0.0000,0.00,2024-07-02 09:13:27,2649.46,0.0,0.0,0.00,Close,0.00,
5,1,1,,CCCV Chg,00:02:00,00:02:00,50.0020,54.0900,1.6667,1666663.82,1.6667,1666663.82,0.0000,0.00,89.8623,89862274.84,89.8623,89862274.84,0.0000,0.00,2024-07-02 09:15:27,2704.61,13982.0,13982016.4,0.00,Close,2.12,
9,1,1,,CCCV Chg,00:04:00,00:04:00,50.0028,54.1510,3.3333,3333323.38,3.3333,3333323.38,0.0000,0.00,180.0696,180069637.69,180.0696,180069637.69,0.0000,0.00,2024-07-02 09:17:27,2707.7,31565.4,31565387.2,0.00,Close,4.25,
13,1,1,,CCCV Chg,00:06:00,00:06:00,49.9995,54.1828,5.0000,4999985.07,5.0000,4999985.07,0.0000,0.00,270.3493,270349266.49,270.3493,270349266.49,0.0000,0.00,2024-07-02 09:19:27,2709.12,61274.5,61274457.5,0.00,Close,6.37,
17,1,1,,CCCV Chg,00:08:00,00:08:00,50.0030,54.2004,6.6666,6666645.33,6.6666,6666645.33,0.0000,0.00,360.6713,360671323.02,360.6713,360671323.02,0.0000,0.00,2024-07-02 09:21:27,2710.18,173611.3,173611259.3,0.00,Close,8.49,
21,1,1,,CCCV Chg,00:10:00,00:10:00,50.0006,54.2089,8.3333,8333303.47,8.3333,8333303.47,0.0000,0.00,451.0117,451011652.27,451.0117,451011652.27,0.0000,0.00,2024-07-02 09:23:27,2710.48,143678.0,143678038.3,0.00,Close,10.61,
25,1,1,,CCCV Chg,00:12:00,00:12:00,50.0016,54.2127,10.0000,9999962.31,10.0000,9999962.31,0.0000,0.00,541.3631,541363086.22,541.3631,541363086.22,0.0000,0.00,2024-07-02 09:25:27,2710.72,4166670.2,4166670222.4,0.00,Close,12.74,
29,1,1,,CCCV Chg,00:14:00,00:14:00,49.9986,54.2159,11.6666,11666621.16,11.6666,11666621.16,0.0000,0.00,631.7201,631720118.04,631.7201,631720118.04,0.0000,0.00,2024-07-02 09:27:27,2710.72,1388885.3,1388885333.4,0.00,Close,14.86,
33,1,1,,CCCV Chg,00:16:00,00:16:00,50.0006,54.2174,13.3333,13333277.87,13.3333,13333277.87,0.0000,0.00,722.0807,722080699.73,722.0807,722080699.73,0.0000,0.00,2024-07-02 09:29:27,2710.9,0.0,0.0,0.00,Close,16.98,
37,1,1,,CCCV Chg,00:18:00,00:18:00,50.0006,54.2199,14.9999,14999936.00,14.9999,14999936.00,0.0000,0.00,812.4440,812443966.58,812.4440,812443966.58,0.0000,0.00,2024-07-02 09:31:27,2711.03,181159.0,181158956.5,0.00,Close,19.11,
41,1,1,,CCCV Chg,00:20:00,00:20:00,50.0000,54.2238,16.6666,16666598.40,16.6666,16666598.40,0.0000,0.00,902.8130,902813013.33,902.8130,902813013.33,0.0000,0.00,2024-07-02 09:33:27,2711.19,378783.0,378783030.3,0.00,Close,21.23,
45,1,1,,CCCV Chg,00:22:00,00:22:00,50.0033,54.2302,18.3333,18333259.38,18.3333,18333259.38,0.0000,0.00,993.1906,993190616.18,993.1906,993190616.18,0.0000,0.00,2024-07-02 09:35:27,2711.69,277776.1,277776118.5,0.00,Close,23.35,
49,1,1,,CCCV Chg,00:24:00,00:24:00,49.9950,54.2390,19.9999,19999924.62,19.9999,19999924.62,0.0000,0.00,1083.58,1083580871.11,1083.58,1083580871.11,0.0000,0.00,2024-07-02 09:37:27,2711.68,96899.6,96899638.2,0.00,Close,25.47,
53,1,1,,CCCV Chg,00:26:00,00:26:00,50.0001,54.2468,21.6666,21666588.44,21.6666,21666588.44,0.0000,0.00,1173.98,1173983505.07,1173.98,1173983505.07,0.0000,0.00,2024-07-02 09:39:27,2712.35,198412.2,198412190.5,0.00,Close,27.60,
57,1,1,,CCCV Chg,00:28:00,00:28:00,50.0002,54.2514,23.3332,23333242.31,23.3332,23333242.31,0.0000,0.00,1264.4,1264397789.87,1264.4,1264397789.87,0.0000,0.00,2024-07-02 09:41:27,2712.58,-347220.1,-347220148.1,0.00,Close,29.72,
61,1,1,,CCCV Chg,00:30:00,00:30:00,49.9979,54.2655,24.9999,24999887.64,24.9999,24999887.64,0.0000,0.00,1354.83,1354828367.64,1354.83,1354828367.64,0.0000,0.00,2024-07-02 09:43:27,2713.16,231477.7,231477728.4,0.00,Close,31.84,
65,1,1,,CCCV Chg,00:32:00,00:32:00,49.9985,54.2809,26.6665,26666538.67,26.6665,26666538.67,0.0000,0.00,1445.28,1445283703.47,1445.28,1445283703.47,0.0000,0.00,2024-07-02 09:45:27,2713.96,112610.8,112610786.8,0.00,Close,33.96,
69,1,1,,CCCV Chg,00:34:00,00:34:00,50.0028,54.2997,28.3332,28333195.38,28.3332,28333195.38,0.0000,0.00,1535.77,1535768075.38,1535.77,1535768075.38,0.0000,0.00,2024-07-02 09:47:27,2715.14,66137.4,66137396.8,0.00,Close,36.09,
73,1,1,,CCCV Chg,00:36:00,00:36:00,50.0002,54.3209,29.9998,29999843.56,29.9998,29999843.56,0.0000,0.00,1626.29,1626285852.44,1626.29,1626285852.44,0.0000,0.00,2024-07-02 09:49:27,2716.05,109647.3,109647345.0,0.00,Close,38.21,
77,1,1,,CCCV Chg,00:38:00,00:38:00,49.9993,54.3426,31.6665,31666488.89,31.6665,31666488.89,0.0000,0.00,1716.84,1716839128.18,1716.84,1716839128.18,0.0000,0.00,2024-07-02 09:51:27,2717.09,71837.9,71837915.7,0.00,Close,40.33,
81,1,1,,CCCV Chg,00:40:00,00:40:00,49.9995,54.3691,33.3331,33333142.76,33.3331,33333142.76,0.0000,0.00,1807.43,1807431725.51,1807.43,1807431725.51,0.0000,0.00,2024-07-02 09:53:27,2718.43,59523.3,59523250.8,0.00,Close,42.46,
85,1,1,,CCCV Chg,00:42:00,00:42:00,50.0051,54.3972,34.9998,34999788.09,34.9998,34999788.09,0.0000,0.00,1898.07,1898068741.69,1898.07,1898068741.69,0.0000,0.00,2024-07-02 09:55:27,2720.14,54823.7,54823672.5,0.00,Close,44.58,
89,1,1,,CCCV Chg,00:44:00,00:44:00,49.9984,54.4317,36.6664,36666439.11,36.6664,36666439.11,0.0000,0.00,1988.76,1988759643.02,1988.76,1988759643.02,0.0000,0.00,2024-07-02 09:57:27,2721.5,49019.1,49019147.7,0.00,Close,46.70,
93,1,1,,CCCV Chg,00:46:00,00:46:00,50.0002,54.4751,38.3331,38333090.13,38.3331,38333090.13,0.0000,0.00,2079.51,2079512803.56,2079.51,2079512803.56,0.0000,0.00,2024-07-02 09:59:27,2723.76,35310.4,35310403.0,0.00,Close,48.82,
97,1,1,,CCCV Chg,00:48:00,00:48:00,49.9993,54.5149,39.9997,39999732.62,39.9997,39999732.62,0.0000,0.00,2170.34,2170336415.29,2170.34,2170336415.29,0.0000,0.00,2024-07-02 10:01:27,2725.71,46295.2,46295229.6,0.00,Close,50.95,
101,1,1,,CCCV Chg,00:50:00,00:50:00,49.9997,54.5570,41.6664,41666392.18,41.6664,41666392.18,0.0000,0.00,2261.23,2261230296.18,2261.23,2261230296.18,0.0000,0.00,2024-07-02 10:03:27,2727.83,50812.5,50812531.2,0.00,Close,53.07,
105,1,1,,CCCV Chg,00:52:00,00:52:00,49.9972,54.5922,43.3330,43333048.89,43.3330,43333048.89,0.0000,0.00,2352.19,2352188620.80,2352.19,2352188620.80,0.0000,0.00,2024-07-02 10:05:27,2729.46,47892.3,47892270.8,0.00,Close,55.19,
109,1,1,,CCCV Chg,00:54:00,00:54:00,49.9963,54.6203,44.9997,44999711.29,44.9997,44999711.29,0.0000,0.00,2443.2,2443198828.09,2443.2,2443198828.09,0.0000,0.00,2024-07-02 10:07:27,2730.81,88652.3,88652255.3,0.00,Close,57.32,
113,1,1,,CCCV Chg,00:56:00,00:56:00,50.0008,54.6436,46.6664,46666365.16,46.6664,46666365.16,0.0000,0.00,2534.25,2534254000.36,2534.25,2534254000.36,0.0000,0.00,2024-07-02 10:09:27,2732.22,90578.9,90578859.9,0.00,Close,59.44,
117,1,1,,CCCV Chg,00:58:00,00:58:00,50.0026,54.6672,48.3330,48333021.87,48.3330,48333021.87,0.0000,0.00,2625.35,2625348312.18,2625.35,2625348312.18,0.0000,0.00,2024-07-02 10:11:27,2733.5,77159.2,77159242.8,0.00,Close,61.56,
121,1,1,,CCCV Chg,01:00:00,01:00:00,50.0061,54.6866,49.9997,49999672.89,49.9997,49999672.89,0.0000,0.00,2716.47,2716474845.87,2716.47,2716474845.87,0.0000,0.00,2024-07-02 10:13:27,2734.66,67203.2,67203211.5,0.00,Close,63.68,
125,1,1,,CCCV Chg,01:02:00,01:02:00,50.0029,54.7058,51.6663,51666335.29,51.6663,51666335.29,0.0000,0.00,2807.63,2807633055.29,2807.63,2807633055.29,0.0000,0.00,2024-07-02 10:15:27,2735.45,86805.3,86805333.3,0.00,Close,65.81,
129,1,1,,CCCV Chg,01:04:00,01:04:00,50.0013,54.7250,53.3330,53332992.00,53.3330,53332992.00,0.0000,0.00,2898.82,2898824032.71,2898.82,2898824032.71,0.0000,0.00,2024-07-02 10:17:27,2736.32,75757.4,75757381.8,0.00,Close,67.93,
133,1,1,,CCCV Chg,01:06:00,01:06:00,50.0000,54.7459,54.9997,54999654.40,54.9997,54999654.40,0.0000,0.00,2990.05,2990048688.36,2990.05,2990048688.36,0.0000,0.00,2024-07-02 10:19:27,2737.29,73099.2,73099228.1,0.00,Close,70.05,
137,1,1,,CCCV Chg,01:08:00,01:08:00,50.0023,54.7686,56.6663,56666316.80,56.6663,56666316.80,0.0000,0.00,3081.31,3081310116.98,3081.31,3081310116.98,0.0000,0.00,2024-07-02 10:21:27,2738.55,81699.1,81699137.3,0.00,Close,72.18,
141,1,1,,CCCV Chg,01:10:00,01:10:00,49.9990,54.7939,58.3330,58332973.51,58.3330,58332973.51,0.0000,0.00,3172.61,3172612323.56,3172.61,3172612323.56,0.0000,0.00,2024-07-02 10:23:27,2739.64,74403.6,74403555.6,0.00,Close,74.30,
145,1,1,,CCCV Chg,01:12:00,01:12:00,50.0014,54.8197,59.9996,59999630.22,59.9996,59999630.22,0.0000,0.00,3263.96,3263957492.62,3263.96,3263957492.62,0.0000,0.00,2024-07-02 10:25:27,2741.06,77160.3,77160296.3,0.00,Close,76.42,
149,1,1,,CCCV Chg,01:14:00,01:14:00,50.0015,54.8515,61.6663,61666286.93,61.6663,61666286.93,0.0000,0.00,3355.35,3355348900.98,3355.35,3355348900.98,0.0000,0.00,2024-07-02 10:27:27,2742.66,47348.4,47348363.6,0.00,Close,78.54,
153,1,1,,CCCV Chg,01:16:00,01:16:00,49.9916,54.8812,63.3329,63332943.64,63.3329,63332943.64,0.0000,0.00,3446.79,3446789825.42,3446.79,3446789825.42,0.0000,0.00,2024-07-02 10:29:27,2743.6,43402.7,43402666.7,0.00,Close,80.67,
157,1,1,,CCCV Chg,01:18:00,01:18:00,49.9965,54.9153,64.9996,64999594.67,64.9996,64999594.67,0.0000,0.00,3538.29,3538286455.47,3538.29,3538286455.47,0.0000,0.00,2024-07-02 10:31:27,2745.57,54824.4,54824421.1,0.00,Close,82.79,
161,1,1,,CCCV Chg,01:20:00,01:20:00,50.0044,54.9566,66.6663,66666251.38,66.6663,66666251.38,0.0000,0.00,3629.85,3629846072.89,3629.85,3629846072.89,0.0000,0.00,2024-07-02 10:33:27,2748.07,35919.4,35919448.3,0.00,Close,84.91,
165,1,1,,CCCV Chg,01:22:00,01:22:00,49.9997,55.0071,68.3329,68332896.71,68.3329,68332896.71,0.0000,0.00,3721.48,3721480692.62,3721.48,3721480692.62,0.0000,0.00,2024-07-02 10:35:27,2750.34,30413.1,30413132.2,0.00,Close,87.03,
169,1,1,,CCCV Chg,01:24:00,01:24:00,50.0021,55.0677,69.9995,69999542.04,69.9995,69999542.04,0.0000,0.00,3813.21,3813208883.20,3813.21,3813208883.20,0.0000,0.00,2024-07-02 10:37:27,2753.5,32808.3,32808315.0,0.00,Close,89.16,
173,1,1,,CCCV Chg,01:26:00,01:26:00,50.0003,55.1470,71.6662,71666187.38,71.6662,71666187.38,0.0000,0.00,3905.05,3905051397.69,3905.05,3905051397.69,0.0000,0.00,2024-07-02 10:39:27,2757.37,19561.8,19561765.3,0.00,Close,91.28,
177,1,1,,CCCV Chg,01:28:00,01:28:00,49.9969,55.2560,73.3328,73332821.33,73.3328,73332821.33,0.0000,0.00,3997.05,3997046465.42,3997.05,3997046465.42,0.0000,0.00,2024-07-02 10:41:27,2762.63,13616.2,13616151.1,0.00,Close,93.40,
181,1,1,,CCCV Chg,01:30:00,01:30:00,50.0016,55.4360,74.9995,74999455.29,74.9995,74999455.29,0.0000,0.00,4089.27,4089273457.78,4089.27,4089273457.78,0.0000,0.00,2024-07-02 10:43:27,2771.89,7220.9,7220945.1,0.00,Close,95.53,
185,1,1,,CCCV Chg,01:32:00,01:32:00,49.9954,55.7891,76.6661,76666117.69,76.6661,76666117.69,0.0000,0.00,4181.92,4181916967.82,4181.92,4181916967.82,0.0000,0.00,2024-07-02 10:45:27,2789.2,3498.5,3498499.5,0.00,Close,97.65,
189,1,1,,CCCV Chg,01:34:00,01:34:00,49.9975,57.0890,78.3328,78332757.33,78.3328,78332757.33,0.0000,0.00,4275.66,4275664395.38,4275.66,4275664395.38,0.0000,0.00,2024-07-02 10:47:27,2854.31,710.2,710175.4,0.00,Close,99.77,
193,1,2,,Rest,00:01:00,01:35:12,0.0000,54.7591,0.0000,0.00,0.0000,0.00,0.0000,0.00,0.0000,0.00,0.0000,0.00,0.0000,0.00,2024-07-02 10:48:40,0.0000,0.0,0.0,0.00,Close,0.00,
197,1,2,,Rest,00:03:00,01:37:12,0.0000,54.2400,0.0000,0.00,0.0000,0.00,0.0000,0.00,0.0000,0.00,0.0000,0.00,0.0000,0.00,2024-07-02 10:50:40,0.0000,0.0,0.0,0.00,Close,0.00,
201,1,2,,Rest,00:05:00,01:39:12,0.0000,54.0445,0.0000,0.00,0.0000,0.00,0.0000,0.00,0.0000,0.00,0.0000,0.00,0.0000,0.00,2024-07-02 10:52:40,0.0000,0.0,0.0,0.00,Close,0.00,
205,1,2,,Rest,00:07:00,01:41:12,0.0000,53.9377,0.0000,0.00,0.0000,0.00,0.0000,0.00,0.0000,0.00,0.0000,0.00,0.0000,0.00,2024-07-02 10:54:40,0.0000,0.0,0.0,0.00,Close,0.00,
209,1,2,,Rest,00:09:00,01:43:12,0.0000,53.8704,0.0000,0.00,0.0000,0.00,0.0000,0.00,0.0000,0.00,0.0000,0.00,0.0000,0.00,2024-07-02 10:56:40,0.0000,0.0,0.0,0.00,Close,0.00,
213,1,3,,CC DChg,00:00:30,01:44:42,-50.0038,52.5753,0.4167,416667.20,0.0000,0.00,0.4167,416667.20,21.9993,21999264.71,0.0000,0.00,21.9993,21999264.71,2024-07-02 10:58:10,-2628.97,-604.7,-604741.9,0.00,Close,0.40,
217,1,3,,CC DChg,00:02:30,01:46:42,-50.0002,52.1793,2.0833,2083335.11,0.0000,0.00,2.0833,2083335.11,109.1235,109123515.73,0.0000,0.00,109.1235,109123515.73,2024-07-02 11:00:10,-2608.98,-45290.1,-45290144.9,0.00,Close,2.01,
221,1,3,,CC DChg,00:04:30,01:48:42,-50.0021,52.1789,3.7500,3749999.29,0.0000,0.00,3.7500,3749999.29,196.0873,196087261.87,0.0000,0.00,196.0873,196087261.87,2024-07-02 11:02:10,-2609.05,260416.4,260416444.4,0.00,Close,3.62,
225,1,3,,CC DChg,00:06:30,01:50:42,-49.9993,52.1790,5.4167,5416664.53,0.0000,0.00,5.4167,5416664.53,283.0527,283052714.67,0.0000,0.00,283.0527,283052714.67,2024-07-02 11:04:10,-2608.91,-462964.1,-462964148.1,0.00,Close,5.23,
229,1,3,,CC DChg,00:08:30,01:52:42,-49.9996,52.1790,7.0833,7083331.56,0.0000,0.00,7.0833,7083331.56,370.0177,370017735.11,0.0000,0.00,370.0177,370017735.11,2024-07-02 11:06:10,-2608.93,4166670.2,4166670222.1,0.00,Close,6.84,
233,1,3,,CC DChg,00:10:30,01:54:42,-50.0021,52.1745,8.7500,8749997.51,0.0000,0.00,8.7500,8749997.51,456.9797,456979660.80,0.0000,0.00,456.9797,456979660.80,2024-07-02 11:08:10,-2608.83,-320512.5,-320512547.0,0.00,Close,8.45,
237,1,3,,CC DChg,00:12:30,01:56:42,-49.9999,52.1699,10.4167,10416662.04,0.0000,0.00,10.4167,10416662.04,543.9326,543932598.04,0.0000,0.00,543.9326,543932598.04,2024-07-02 11:10:10,-2608.49,2083338.7,2083338666.7,0.00,Close,10.05,
241,1,3,,CC DChg,00:14:30,01:58:42,-49.9984,52.1612,12.0833,12083326.58,0.0000,0.00,12.0833,12083326.58,630.8746,630874612.62,0.0000,0.00,630.8746,630874612.62,2024-07-02 11:12:10,-2607.98,-378785.6,-378785616.2,0.00,Close,11.66,
245,1,3,,CC DChg,00:16:30,02:00:42,-50.0013,52.1538,13.7500,13749997.51,0.0000,0.00,13.7500,13749997.51,717.8025,717802518.76,0.0000,0.00,717.8025,717802518.76,2024-07-02 11:14:10,-2607.76,-416667.0,-416667022.2,0.00,Close,13.27,
249,1,3,,CC DChg,00:18:30,02:02:42,-49.9993,52.1421,15.4167,15416665.60,0.0000,0.00,15.4167,15416665.60,804.7141,804714086.40,0.0000,0.00,804.7141,804714086.40,2024-07-02 11:16:10,-2607.07,-173611.9,-173611851.9,0.00,Close,14.88,
253,1,3,,CC DChg,00:20:30,02:04:42,-50.0037,52.1298,17.0833,17083329.42,0.0000,0.00,17.0833,17083329.42,891.6091,891609088.00,0.0000,0.00,891.6091,891609088.00,2024-07-02 11:18:10,-2606.68,-70621.3,-70621288.1,0.00,Close,16.49,
257,1,3,,CC DChg,00:22:30,02:06:42,-50.0025,52.1175,18.7500,18749997.51,0.0000,0.00,18.7500,18749997.51,978.4830,978482972.44,0.0000,0.00,978.4830,978482972.44,2024-07-02 11:20:10,-2606.01,-277778.0,-277778014.8,0.00,Close,18.10,
261,1,3,,CC DChg,00:24:30,02:08:42,-49.9998,52.1032,20.4167,20416668.44,0.0000,0.00,20.4167,20416668.44,1065.33,1065334738.49,0.0000,0.00,1065.33,1065334738.49,2024-07-02 11:22:10,-2605.15,-81699.1,-81699137.3,0.00,Close,19.71,
265,1,3,,CC DChg,00:26:30,02:10:42,-50.0009,52.0844,22.0833,22083330.84,0.0000,0.00,22.0833,22083330.84,1152.16,1152156831.29,0.0000,0.00,1152.16,1152156831.29,2024-07-02 11:24:10,-2604.27,-85034.1,-85034086.2,0.00,Close,21.32,
269,1,3,,CC DChg,00:28:30,02:12:42,-50.0071,52.0658,23.7500,23749990.40,0.0000,0.00,23.7500,23749990.40,1238.95,1238947703.47,0.0000,0.00,1238.95,1238947703.47,2024-07-02 11:26:10,-2603.66,-181157.1,-181157101.4,0.00,Close,22.92,
273,1,3,,CC DChg,00:30:30,02:14:42,-50.0021,52.0386,25.4167,25416661.33,0.0000,0.00,25.4167,25416661.33,1325.7,1325699982.22,0.0000,0.00,1325.7,1325699982.22,2024-07-02 11:28:10,-2602.04,-74405.1,-74405079.4,0.00,Close,24.53,
277,1,3,,CC DChg,00:32:30,02:16:42,-49.9976,52.0068,27.0833,27083323.73,0.0000,0.00,27.0833,27083323.73,1412.41,1412405748.62,0.0000,0.00,1412.41,1412405748.62,2024-07-02 11:30:10,-2600.21,-46296.2,-46296177.8,0.00,Close,26.14,
281,1,3,,CC DChg,00:34:30,02:18:42,-50.0013,51.9720,28.7500,28749991.82,0.0000,0.00,28.7500,28749991.82,1499.05,1499054899.20,0.0000,0.00,1499.05,1499054899.20,2024-07-02 11:32:10,-2598.67,-46296.5,-46296493.8,0.00,Close,27.75,
285,1,3,,CC DChg,00:36:30,02:20:42,-50.0034,51.9200,30.4167,30416654.22,0.0000,0.00,30.4167,30416654.22,1585.63,1585630776.89,0.0000,0.00,1585.63,1585630776.89,2024-07-02 11:34:10,-2596.17,-25879.9,-25879850.9,0.00,Close,29.36,
289,1,3,,CC DChg,00:38:30,02:22:42,-49.9969,51.8647,32.0833,32083325.16,0.0000,0.00,32.0833,32083325.16,1672.12,1672119728.36,0.0000,0.00,1672.12,1672119728.36,2024-07-02 11:36:10,-2593.08,-27593.9,-27593936.7,0.00,Close,30.97,
293,1,3,,CC DChg,00:40:30,02:24:42,-49.9953,51.8068,33.7500,33749984.71,0.0000,0.00,33.7500,33749984.71,1758.51,1758510193.78,0.0000,0.00,1758.51,1758510193.78,2024-07-02 11:38:10,-2590.1,-35013.9,-35013916.0,0.00,Close,32.58,
297,1,3,,CC DChg,00:42:30,02:26:42,-50.0044,51.7555,35.4166,35416649.96,0.0000,0.00,35.4166,35416649.96,1844.81,1844808908.80,0.0000,0.00,1844.81,1844808908.80,2024-07-02 11:40:10,-2588,-42088.0,-42088009.0,0.00,Close,34.19,
301,1,3,,CC DChg,00:44:30,02:28:42,-49.9999,51.7149,37.0833,37083315.20,0.0000,0.00,37.0833,37083315.20,1931.03,1931032075.38,0.0000,0.00,1931.03,1931032075.38,2024-07-02 11:42:10,-2585.74,-52083.2,-52083200.0,0.00,Close,35.79,
305,1,3,,CC DChg,00:46:30,02:30:42,-50.0048,51.6846,38.7500,38749983.29,0.0000,0.00,38.7500,38749983.29,2017.2,2017198808.18,0.0000,0.00,2017.2,2017198808.18,2024-07-02 11:44:10,-2584.48,-54824.8,-54824795.3,0.00,Close,37.40,
309,1,3,,CC DChg,00:48:30,02:32:42,-50.0019,51.6649,40.4166,40416648.53,0.0000,0.00,40.4166,40416648.53,2103.32,2103322760.53,0.0000,0.00,2103.32,2103322760.53,2024-07-02 11:46:10,-2583.34,-81699.1,-81699137.3,0.00,Close,39.01,
313,1,3,,CC DChg,00:50:30,02:34:42,-50.0081,51.6412,42.0833,42083316.62,0.0000,0.00,42.0833,42083316.62,2189.41,2189411214.22,0.0000,0.00,2189.41,2189411214.22,2024-07-02 11:48:10,-2582.48,-65103.6,-65103555.6,0.00,Close,40.62,
317,1,3,,CC DChg,00:52:30,02:36:42,-49.9990,51.6208,43.7500,43749981.87,0.0000,0.00,43.7500,43749981.87,2275.46,2275462894.93,0.0000,0.00,2275.46,2275462894.93,2024-07-02 11:50:10,-2580.99,-66137.4,-66137396.8,0.00,Close,42.23,
321,1,3,,CC DChg,00:54:30,02:38:42,-49.9981,51.6017,45.4166,45416644.27,0.0000,0.00,45.4166,45416644.27,2361.48,2361480897.42,0.0000,0.00,2361.48,2361480897.42,2024-07-02 11:52:10,-2579.99,-101625.8,-101625756.1,0.00,Close,43.84,
325,1,3,,CC DChg,00:56:30,02:40:42,-49.9989,51.5791,47.0833,47083306.67,0.0000,0.00,47.0833,47083306.67,2447.46,2447464129.42,0.0000,0.00,2447.46,2447464129.42,2024-07-02 11:54:10,-2578.9,-66137.4,-66137396.8,0.00,Close,45.45,
329,1,3,,CC DChg,00:58:30,02:42:42,-50.0103,51.5583,48.7500,48749966.22,0.0000,0.00,48.7500,48749966.22,2533.41,2533410406.40,0.0000,0.00,2533.41,2533410406.40,2024-07-02 11:56:10,-2578.45,-86805.3,-86805333.3,0.00,Close,47.06,
333,1,3,,CC DChg,01:00:30,02:44:42,-49.9979,51.5346,50.4166,50416634.31,0.0000,0.00,50.4166,50416634.31,2619.32,2619320092.44,0.0000,0.00,2619.32,2619320092.44,2024-07-02 11:58:10,-2576.62,-68305.8,-68305836.1,0.00,Close,48.66,
337,1,3,,CC DChg,01:02:30,02:46:42,-49.9974,51.5115,52.0833,52083308.09,0.0000,0.00,52.0833,52083308.09,2705.19,2705191731.20,0.0000,0.00,2705.19,2705191731.20,2024-07-02 12:00:10,-2575.44,-61274.4,-61274352.9,0.00,Close,50.27,
341,1,3,,CC DChg,01:04:30,02:48:42,-49.9997,51.4872,53.7500,53749976.18,0.0000,0.00,53.7500,53749976.18,2791.02,2791024048.36,0.0000,0.00,2791.02,2791024048.36,2024-07-02 12:02:10,-2574.35,-77161.3,-77161349.8,0.00,Close,51.88,
345,1,3,,CC DChg,01:06:30,02:50:42,-50.0013,51.4600,55.4166,55416632.89,0.0000,0.00,55.4166,55416632.89,2876.81,2876814131.20,0.0000,0.00,2876.81,2876814131.20,2024-07-02 12:04:10,-2573.06,-64102.4,-64102400.0,0.00,Close,53.49,
349,1,3,,CC DChg,01:08:30,02:52:42,-50.0016,51.4317,57.0833,57083300.98,0.0000,0.00,57.0833,57083300.98,2962.56,2962558338.84,0.0000,0.00,2962.56,2962558338.84,2024-07-02 12:06:10,-2571.67,-57871.0,-57871012.3,0.00,Close,55.10,
353,1,3,,CC DChg,01:10:30,02:54:42,-49.9989,51.4047,58.7500,58749969.07,0.0000,0.00,58.7500,58749969.07,3048.26,3048256853.33,0.0000,0.00,3048.26,3048256853.33,2024-07-02 12:08:10,-2570.18,-48449.5,-48449488.4,0.00,Close,56.71,
357,1,3,,CC DChg,01:12:30,02:56:42,-50.0011,51.3785,60.4166,60416637.16,0.0000,0.00,60.4166,60416637.16,3133.91,3133910402.84,0.0000,0.00,3133.91,3133910402.84,2024-07-02 12:10:10,-2568.98,-65104.0,-65104000.0,0.00,Close,58.32,
361,1,3,,CC DChg,01:14:30,02:58:42,-50.0022,51.3482,62.0833,62083299.56,0.0000,0.00,62.0833,62083299.56,3219.51,3219513890.13,0.0000,0.00,3219.51,3219513890.13,2024-07-02 12:12:10,-2567.53,-78616.2,-78616150.9,0.00,Close,59.93,
365,1,3,,CC DChg,01:16:30,03:00:42,-50.0011,51.3142,63.7500,63749961.96,0.0000,0.00,63.7500,63749961.96,3305.07,3305067497.24,0.0000,0.00,3305.07,3305067497.24,2024-07-02 12:14:10,-2565.77,-40063.5,-40063453.0,0.00,Close,61.53,
369,1,3,,CC DChg,01:18:30,03:02:42,-49.9950,51.2805,65.4166,65416630.04,0.0000,0.00,65.4166,65416630.04,3390.56,3390564670.58,0.0000,0.00,3390.56,3390564670.58,2024-07-02 12:16:10,-2563.77,-40063.5,-40063453.0,0.00,Close,63.14,
373,1,3,,CC DChg,01:20:30,03:04:42,-49.9978,51.2400,67.0833,67083298.13,0.0000,0.00,67.0833,67083298.13,3476,3475998128.36,0.0000,0.00,3476,3475998128.36,2024-07-02 12:18:10,-2561.89,-44802.8,-44802752.7,0.00,Close,64.75,
377,1,3,,CC DChg,01:22:30,03:06:42,-49.9955,51.1917,68.7500,68749960.53,0.0000,0.00,68.7500,68749960.53,3561.36,3561359132.44,0.0000,0.00,3561.36,3561359132.44,2024-07-02 12:20:10,-2559.35,-33875.3,-33875252.0,0.00,Close,66.36,
381,1,3,,CC DChg,01:24:30,03:08:42,-49.9972,51.1384,70.4166,70416628.62,0.0000,0.00,70.4166,70416628.62,3646.64,3646637488.36,0.0000,0.00,3646.64,3646637488.36,2024-07-02 12:22:10,-2556.78,-28539.1,-28539129.4,0.00,Close,67.97,
385,1,3,,CC DChg,01:26:30,03:10:42,-50.0034,51.0795,72.0833,72083296.71,0.0000,0.00,72.0833,72083296.71,3731.82,3731820817.07,0.0000,0.00,3731.82,3731820817.07,2024-07-02 12:24:10,-2554.15,-26041.6,-26041600.0,0.00,Close,69.58,
389,1,3,,CC DChg,01:28:30,03:12:42,-49.9978,51.0136,73.7500,73749964.80,0.0000,0.00,73.7500,73749964.80,3816.9,3816900380.44,0.0000,0.00,3816.9,3816900380.44,2024-07-02 12:26:10,-2550.57,-22522.5,-22522464.9,0.00,Close,71.19,
393,1,3,,CC DChg,01:30:30,03:14:42,-50.0024,50.9497,75.4166,75416615.82,0.0000,0.00,75.4166,75416615.82,3901.87,3901872173.51,0.0000,0.00,3901.87,3901872173.51,2024-07-02 12:28:10,-2547.61,-22281.3,-22281278.7,0.00,Close,72.80,
397,1,3,,CC DChg,01:32:30,03:16:42,-49.9996,50.8800,77.0833,77083278.22,0.0000,0.00,77.0833,77083278.22,3986.73,3986731099.02,0.0000,0.00,3986.73,3986731099.02,2024-07-02 12:30:10,-2543.98,-21701.3,-21701333.3,0.00,Close,74.40,
401,1,3,,CC DChg,01:34:30,03:18:42,-49.9974,50.8056,78.7499,78749934.93,0.0000,0.00,78.7499,78749934.93,4071.47,4071468782.93,0.0000,0.00,4071.47,4071468782.93,2024-07-02 12:32:10,-2540.15,-25562.3,-25562306.7,0.00,Close,76.01,
405,1,3,,CC DChg,01:36:30,03:20:42,-50.0026,50.7187,80.4166,80416603.02,0.0000,0.00,80.4166,80416603.02,4156.07,4156072846.22,0.0000,0.00,4156.07,4156072846.22,2024-07-02 12:34:10,-2536.07,-17433.7,-17433707.1,0.00,Close,77.62,
409,1,3,,CC DChg,01:38:30,03:22:42,-49.9994,50.6235,82.0833,82083259.73,0.0000,0.00,82.0833,82083259.73,4240.53,4240525448.53,0.0000,0.00,4240.53,4240525448.53,2024-07-02 12:36:10,-2531.14,-16533.9,-16533897.7,0.00,Close,79.23,
413,1,3,,CC DChg,01:40:30,03:24:42,-49.9961,50.5090,83.7499,83749939.20,0.0000,0.00,83.7499,83749939.20,4324.8,4324803652.27,0.0000,0.00,4324.8,4324803652.27,2024-07-02 12:38:10,-2525.25,-13441.2,-13441192.8,0.00,Close,80.84,
417,1,3,,CC DChg,01:42:30,03:26:42,-49.9971,50.3853,85.4166,85416607.29,0.0000,0.00,85.4166,85416607.29,4408.88,4408884155.73,0.0000,0.00,4408.88,4408884155.73,2024-07-02 12:40:10,-2519.12,-12438.1,-12438118.7,0.00,Close,82.45,
421,1,3,,CC DChg,01:44:30,03:28:42,-50.0019,50.2467,87.0833,87083264.00,0.0000,0.00,87.0833,87083264.00,4492.75,4492746569.96,0.0000,0.00,4492.75,4492746569.96,2024-07-02 12:42:10,-2512.43,-11510.3,-11510256.6,0.00,Close,84.06,
425,1,3,,CC DChg,01:46:30,03:30:42,-49.9996,50.1062,88.7499,88749926.40,0.0000,0.00,88.7499,88749926.40,4576.37,4576367229.16,0.0000,0.00,4576.37,4576367229.16,2024-07-02 12:44:10,-2505.29,-13796.9,-13796874.2,0.00,Close,85.67,
429,1,3,,CC DChg,01:48:30,03:32:42,-50.0046,50.0278,90.4166,90416594.49,0.0000,0.00,90.4166,90416594.49,4659.81,4659806572.09,0.0000,0.00,4659.81,4659806572.09,2024-07-02 12:46:10,-2501.62,-25720.1,-25720098.8,0.00,Close,87.27,
433,1,3,,CC DChg,01:50:30,03:34:42,-49.9989,49.9582,92.0833,92083262.58,0.0000,0.00,92.0833,92083262.58,4743.13,4743129406.58,0.0000,0.00,4743.13,4743129406.58,2024-07-02 12:48:10,-2497.86,-21367.5,-21367466.7,0.00,Close,88.88,
437,1,3,,CC DChg,01:52:30,03:36:42,-49.9986,49.8755,93.7499,93749919.29,0.0000,0.00,93.7499,93749919.29,4826.33,4826325902.22,0.0000,0.00,4826.33,4826325902.22,2024-07-02 12:50:10,-2493.71,-17580.3,-17580346.9,0.00,Close,90.49,
441,1,3,,CC DChg,01:54:30,03:38:42,-49.9988,49.7667,95.4166,95416593.07,0.0000,0.00,95.4166,95416593.07,4909.37,4909367296.00,0.0000,0.00,4909.37,4909367296.00,2024-07-02 12:52:10,-2488.27,-13751.3,-13751339.9,0.00,Close,92.10,
445,1,3,,CC DChg,01:56:30,03:40:42,-50.0006,49.5674,97.0833,97083266.84,0.0000,0.00,97.0833,97083266.84,4992.17,4992170575.64,0.0000,0.00,4992.17,4992170575.64,2024-07-02 12:54:10,-2478.4,-5910.2,-5910150.4,0.00,Close,93.71,
449,1,3,,CC DChg,01:58:30,03:42:42,-49.9972,48.9672,98.7499,98749917.87,0.0000,0.00,98.7499,98749917.87,5074.37,5074365826.84,0.0000,0.00,5074.37,5074365826.84,2024-07-02 12:56:10,-2448.22,-2028.5,-2028501.6,0.00,Close,95.32,
453,1,3,,CC DChg,02:00:30,03:44:42,-49.9971,47.8861,100.4166,100416580.27,0.0000,0.00,100.4166,100416580.27,5155.13,5155131665.07,0.0000,0.00,5155.13,5155131665.07,2024-07-02 12:58:10,-2394.16,-1350.6,-1350617.8,0.00,Close,96.93,
457,1,3,,CC DChg,02:02:30,03:46:42,-50.0007,46.3161,102.0833,102083254.04,0.0000,0.00,102.0833,102083254.04,5233.72,5233722072.18,0.0000,0.00,5233.72,5233722072.18,2024-07-02 13:00:10,-2315.84,-912.7,-912739.5,0.00,Close,98.54,
461,1,3,,CC DChg,02:04:19,03:48:32,-50.0021,43.9998,103.5999,103599911.82,0.0000,0.00,103.5999,103599911.82,5302.38,5302381954.84,0.0000,0.00,5302.38,5302381954.84,2024-07-02 13:01:59,-2200.08,-514.8,-514789.5,0.00,Close,100.00,
465,1,4,,Rest,00:01:30,03:50:02,0.0000,45.3672,0.0000,0.00,0.0000,0.00,0.0000,0.00,0.0000,0.00,0.0000,0.00,0.0000,0.00,2024-07-02 13:03:29,0.0000,0.0,0.0,0.00,Close,0.00,
469,1,4,,Rest,00:03:30,03:52:02,0.0000,45.5328,0.0000,0.00,0.0000,0.00,0.0000,0.00,0.0000,0.00,0.0000,0.00,0.0000,0.00,2024-07-02 13:05:29,0.0000,0.0,0.0,0.00,Close,0.00,
473,1,4,,Rest,00:05:30,03:54:02,0.0000,45.6357,0.0000,0.00,0.0000,0.00,0.0000,0.00,0.0000,0.00,0.0000,0.00,0.0000,0.00,2024-07-02 13:07:29,0.0000,0.0,0.0,0.00,Close,0.00,
477,1,4,,Rest,00:07:30,03:56:02,0.0000,45.7167,0.0000,0.00,0.0000,0.00,0.0000,0.00,0.0000,0.00,0.0000,0.00,0.0000,0.00,2024-07-02 13:09:29,0.0000,0.0,0.0,0.00,Close,0.00,
481,1,4,,Rest,00:09:30,03:58:02,0.0000,45.7798,0.0000,0.00,0.0000,0.00,0.0000,0.00,0.0000,0.00,0.0000,0.00,0.0000,0.00,2024-07-02 13:11:29,0.0000,0.0,0.0,0.00,Close,0.00,
485,1,5,,CCCV Chg,00:01:00,03:59:32,49.9985,48.2948,0.8333,833325.24,0.8333,833325.24,0.0000,0.00,39.6180,39618005.33,39.6180,39618005.33,0.0000,0.00,2024-07-02 13:12:59,2414.67,592.1,592102.8,0.00,Close,0.80,
489,1,5,,CCCV Chg,00:03:00,04:01:32,50.0020,50.1629,2.5000,2499969.78,2.5000,2499969.78,0.0000,0.00,121.8092,121809203.20,121.8092,121809203.20,0.0000,0.00,2024-07-02 13:14:59,2508.25,1097.9,1097921.4,0.00,Close,2.40,
493,1,5,,CCCV Chg,00:05:00,04:03:32,49.9970,51.3507,4.1666,4166615.11,4.1666,4166615.11,0.0000,0.00,206.4640,206463954.49,206.4640,206463954.49,0.0000,0.00,2024-07-02 13:16:59,2567.38,1623.8,1623773.4,0.00,Close,4.01,
497,1,5,,CCCV Chg,00:07:00,04:05:32,49.9974,52.1897,5.8333,5833262.93,5.8333,5833262.93,0.0000,0.00,292.7877,292787723.38,292.7877,292787723.38,0.0000,0.00,2024-07-02 13:18:59,2609.35,2279.3,2279334.8,0.00,Close,5.61,
501,1,5,,CCCV Chg,00:09:00,04:07:32,49.9991,52.5348,7.4999,7499909.69,7.4999,7499909.69,0.0000,0.00,380.1549,380154948.27,380.1549,380154948.27,0.0000,0.00,2024-07-02 13:20:59,2626.69,17433.6,17433588.1,0.00,Close,7.21,
505,1,5,,CCCV Chg,00:11:00,04:09:32,50.0041,52.5961,9.1666,9166556.44,9.1666,9166556.44,0.0000,0.00,467.7649,467764929.42,467.7649,467764929.42,0.0000,0.00,2024-07-02 13:22:59,2630.02,27963.9,27963895.6,0.00,Close,8.81,
509,1,5,,CCCV Chg,00:13:00,04:11:32,49.9979,52.6602,10.8332,10833203.20,10.8332,10833203.20,0.0000,0.00,555.4759,555475854.22,555.4759,555475854.22,0.0000,0.00,2024-07-02 13:24:59,2632.9,22401.1,22401147.0,0.00,Close,10.41,
513,1,5,,CCCV Chg,00:15:00,04:13:32,49.9996,52.7278,12.4999,12499854.22,12.4999,12499854.22,0.0000,0.00,643.2971,643297143.47,643.2971,643297143.47,0.0000,0.00,2024-07-02 13:26:59,2636.37,24654.6,24654600.9,0.00,Close,12.02,
517,1,5,,CCCV Chg,00:17:00,04:15:32,50.0025,52.8166,14.1665,14166503.82,14.1665,14166503.82,0.0000,0.00,731.2476,731247593.24,731.2476,731247593.24,0.0000,0.00,2024-07-02 13:28:59,2640.96,17360.9,17360888.9,0.00,Close,13.62,
521,1,5,,CCCV Chg,00:19:00,04:17:32,49.9973,52.9316,15.8332,15833153.42,15.8332,15833153.42,0.0000,0.00,819.3679,819367936.00,819.3679,819367936.00,0.0000,0.00,2024-07-02 13:30:59,2646.44,14124.1,14124113.0,0.00,Close,15.22,
525,1,5,,CCCV Chg,00:21:00,04:19:32,49.9895,53.0734,17.4998,17499797.33,17.4998,17499797.33,0.0000,0.00,907.7033,907703273.24,907.7033,907703273.24,0.0000,0.00,2024-07-02 13:32:59,2653.11,12042.2,12042194.0,0.00,Close,16.82,
529,1,5,,CCCV Chg,00:23:00,04:21:32,49.9971,53.2213,19.1664,19166439.82,19.1664,19166439.82,0.0000,0.00,996.2823,996282276.98,996.2823,996282276.98,0.0000,0.00,2024-07-02 13:34:59,2660.91,11770.0,11769973.6,0.00,Close,18.42,
533,1,5,,CCCV Chg,00:25:00,04:23:32,49.9939,53.3580,20.8331,20833090.84,20.8331,20833090.84,0.0000,0.00,1085.1,1085100214.04,1085.1,1085100214.04,0.0000,0.00,2024-07-02 13:36:59,2667.57,12664.5,12664478.2,0.00,Close,20.03,
537,1,5,,CCCV Chg,00:27:00,04:25:32,50.0057,53.4755,22.4997,22499733.33,22.4997,22499733.33,0.0000,0.00,1174.13,1174127684.27,1174.13,1174127684.27,0.0000,0.00,2024-07-02 13:38:59,2674.08,14318.3,14318307.8,0.00,Close,21.63,
541,1,5,,CCCV Chg,00:29:00,04:27:32,49.9984,53.5896,24.1664,24166380.09,24.1664,24166380.09,0.0000,0.00,1263.35,1263349304.89,1263.35,1263349304.89,0.0000,0.00,2024-07-02 13:40:59,2679.4,16600.1,16600109.8,0.00,Close,23.23,
545,1,5,,CCCV Chg,00:31:00,04:29:32,50.0079,53.6962,25.8330,25833025.42,25.8330,25833025.42,0.0000,0.00,1352.76,1352757156.98,1352.76,1352757156.98,0.0000,0.00,2024-07-02 13:42:59,2685.23,17506.7,17506719.0,0.00,Close,24.83,
549,1,5,,CCCV Chg,00:33:00,04:31:32,49.9949,53.7751,27.4997,27499667.91,27.4997,27499667.91,0.0000,0.00,1442.32,1442317926.40,1442.32,1442317926.40,0.0000,0.00,2024-07-02 13:44:59,2688.48,22281.3,22281278.7,0.00,Close,26.43,
553,1,5,,CCCV Chg,00:35:00,04:33:32,50.0041,53.8436,29.1663,29166316.09,29.1663,29166316.09,0.0000,0.00,1532,1531997934.93,1532,1531997934.93,0.0000,0.00,2024-07-02 13:46:59,2692.4,20833.1,20833137.8,0.00,Close,28.04,
557,1,5,,CCCV Chg,00:37:00,04:35:32,49.9977,53.9006,30.8330,30832961.42,30.8330,30832961.42,0.0000,0.00,1621.78,1621783165.16,1621.78,1621783165.16,0.0000,0.00,2024-07-02 13:48:59,2694.91,29975.5,29975533.2,0.00,Close,29.64,
561,1,5,,CCCV Chg,00:39:00,04:37:32,50.0008,53.9437,32.4996,32499612.44,32.4996,32499612.44,0.0000,0.00,1711.65,1711655048.53,1711.65,1711655048.53,0.0000,0.00,2024-07-02 13:50:59,2697.23,36549.1,36549115.0,0.00,Close,31.24,
565,1,5,,CCCV Chg,00:41:00,04:39:32,49.9968,53.9702,34.1663,34166263.47,34.1663,34166263.47,0.0000,0.00,1801.58,1801583001.60,1801.58,1801583001.60,0.0000,0.00,2024-07-02 13:52:59,2698.34,64102.4,64102400.0,0.00,Close,32.84,
569,1,5,,CCCV Chg,00:43:00,04:41:32,49.9969,53.9911,35.8329,35832908.80,35.8329,35832908.80,0.0000,0.00,1891.55,1891548819.91,1891.55,1891548819.91,0.0000,0.00,2024-07-02 13:54:59,2699.39,80126.9,80126906.0,0.00,Close,34.44,
573,1,5,,CCCV Chg,00:45:00,04:43:32,50.0059,54.0049,37.4996,37499559.82,37.4996,37499559.82,0.0000,0.00,1981.54,1981544857.60,1981.54,1981544857.60,0.0000,0.00,2024-07-02 13:56:59,2700.56,85032.6,85032634.9,0.00,Close,36.05,
577,1,5,,CCCV Chg,00:47:00,04:45:32,50.0037,54.0206,39.1662,39166205.16,39.1662,39166205.16,0.0000,0.00,2071.56,2071564743.11,2071.56,2071564743.11,0.0000,0.00,2024-07-02 13:58:59,2701.23,115738.1,115738074.1,0.00,Close,37.65,
581,1,5,,CCCV Chg,00:49:00,04:47:32,50.0016,54.0311,40.8329,40832853.33,40.8329,40832853.33,0.0000,0.00,2161.61,2161607020.09,2161.61,2161607020.09,0.0000,0.00,2024-07-02 14:00:59,2701.64,245095.7,245095738.6,0.00,Close,39.25,
585,1,5,,CCCV Chg,00:51:00,04:49:32,50.0097,54.0483,42.4995,42499501.51,42.4995,42499501.51,0.0000,0.00,2251.67,2251673508.98,2251.67,2251673508.98,0.0000,0.00,2024-07-02 14:02:59,2702.94,77160.3,77160296.3,0.00,Close,40.85,
589,1,5,,CCCV Chg,00:53:00,04:51:32,49.9948,54.0649,44.1661,44166149.69,44.1661,44166149.69,0.0000,0.00,2341.77,2341765848.18,2341.77,2341765848.18,0.0000,0.00,2024-07-02 14:04:59,2702.96,63131.2,63131151.5,0.00,Close,42.45,
593,1,5,,CCCV Chg,00:55:00,04:53:32,49.9993,54.0812,45.8328,45832795.02,45.8328,45832795.02,0.0000,0.00,2431.88,2431884037.69,2431.88,2431884037.69,0.0000,0.00,2024-07-02 14:06:59,2704.02,69443.8,69443792.6,0.00,Close,44.06,
597,1,5,,CCCV Chg,00:57:00,04:55:32,49.9937,54.0995,47.4994,47499443.20,47.4994,47499443.20,0.0000,0.00,2522.03,2522032082.49,2522.03,2522032082.49,0.0000,0.00,2024-07-02 14:08:59,2704.63,88652.3,88652255.3,0.00,Close,45.66,
601,1,5,,CCCV Chg,00:59:00,04:57:32,49.9994,54.1164,49.1661,49166091.38,49.1661,49166091.38,0.0000,0.00,2612.21,2612210892.80,2612.21,2612210892.80,0.0000,0.00,2024-07-02 14:10:59,2705.79,115740.4,115740444.4,0.00,Close,47.26,
605,1,5,,CCCV Chg,01:01:00,04:59:32,49.9982,54.1349,50.8327,50832731.02,50.8327,50832731.02,0.0000,0.00,2702.42,2702419922.49,2702.42,2702419922.49,0.0000,0.00,2024-07-02 14:12:59,2706.65,90578.2,90578241.5,0.00,Close,48.86,
609,1,5,,CCCV Chg,01:03:00,05:01:32,49.9999,54.1563,52.4994,52499376.36,52.4994,52499376.36,0.0000,0.00,2792.66,2792662812.44,2792.66,2792662812.44,0.0000,0.00,2024-07-02 14:14:59,2707.81,74403.6,74403555.6,0.00,Close,50.46,
613,1,5,,CCCV Chg,01:05:00,05:03:32,49.9883,54.1795,54.1660,54166033.07,54.1660,54166033.07,0.0000,0.00,2882.94,2882940836.98,2882.94,2882940836.98,0.0000,0.00,2024-07-02 14:16:59,2708.34,57078.3,57078258.8,0.00,Close,52.07,
617,1,5,,CCCV Chg,01:07:00,05:05:32,50.0049,54.2001,55.8327,55832678.40,55.8327,55832678.40,0.0000,0.00,2973.26,2973257454.93,2973.26,2973257454.93,0.0000,0.00,2024-07-02 14:18:59,2710.27,109648.8,109648842.1,0.00,Close,53.67,
621,1,5,,CCCV Chg,01:09:00,05:07:32,50.0004,54.2272,57.4993,57499318.04,57.4993,57499318.04,0.0000,0.00,3063.61,3063613940.62,3063.61,3063613940.62,0.0000,0.00,2024-07-02 14:20:59,2711.38,74403.6,74403555.6,0.00,Close,55.27,
625,1,5,,CCCV Chg,01:11:00,05:09:32,50.0029,54.2535,59.1660,59165969.07,59.1660,59165969.07,0.0000,0.00,3154.01,3154012842.67,3154.01,3154012842.67,0.0000,0.00,2024-07-02 14:22:59,2712.83,54111.7,54111676.8,0.00,Close,56.87,
629,1,5,,CCCV Chg,01:13:00,05:11:32,50.0007,54.2869,60.8326,60832608.71,60.8326,60832608.71,0.0000,0.00,3244.46,3244457984.00,3244.46,3244457984.00,0.0000,0.00,2024-07-02 14:24:59,2714.38,46815.7,46815720.3,0.00,Close,58.47,
633,1,5,,CCCV Chg,01:15:00,05:13:32,49.9987,54.3160,62.4993,62499259.73,62.4993,62499259.73,0.0000,0.00,3334.96,3334959923.20,3334.96,3334959923.20,0.0000,0.00,2024-07-02 14:26:59,2715.73,62188.9,62188895.5,0.00,Close,60.08,
637,1,5,,CCCV Chg,01:17:00,05:15:32,50.0019,54.3590,64.1659,64165899.38,64.1659,64165899.38,0.0000,0.00,3425.52,3425521572.98,3425.52,3425521572.98,0.0000,0.00,2024-07-02 14:28:59,2718.05,36872.6,36872558.5,0.00,Close,61.68,
641,1,5,,CCCV Chg,01:19:00,05:17:32,49.9996,54.4062,65.8326,65832550.40,65.8326,65832550.40,0.0000,0.00,3516.16,3516157860.98,3516.16,3516157860.98,0.0000,0.00,2024-07-02 14:30:59,2720.29,37536.4,37536416.4,0.00,Close,63.28,
645,1,5,,CCCV Chg,01:21:00,05:19:32,50.0007,54.4642,67.4992,67499195.73,67.4992,67499195.73,0.0000,0.00,3606.88,3606880073.96,3606.88,3606880073.96,0.0000,0.00,2024-07-02 14:32:59,2723.25,28538.4,28538350.1,0.00,Close,64.88,
649,1,5,,CCCV Chg,01:23:00,05:21:32,49.9983,54.5099,69.1658,69165846.76,69.1658,69165846.76,0.0000,0.00,3697.69,3697692580.98,3697.69,3697692580.98,0.0000,0.00,2024-07-02 14:34:59,2725.4,31565.6,31565575.8,0.00,Close,66.48,
653,1,5,,CCCV Chg,01:25:00,05:23:32,49.9963,54.5412,70.8325,70832486.40,70.8325,70832486.40,0.0000,0.00,3788.57,3788570259.91,3788.57,3788570259.91,0.0000,0.00,2024-07-02 14:36:59,2726.86,85032.6,85032634.9,0.00,Close,68.09,
657,1,5,,CCCV Chg,01:27:00,05:25:32,50.0013,54.5623,72.4991,72499137.42,72.4991,72499137.42,0.0000,0.00,3879.49,3879490173.16,3879.49,3879490173.16,0.0000,0.00,2024-07-02 14:38:59,2728.18,63130.3,63130289.6,0.00,Close,69.69,
661,1,5,,CCCV Chg,01:29:00,05:27:32,49.9992,54.5773,74.1658,74165788.44,74.1658,74165788.44,0.0000,0.00,3970.44,3970439941.69,3970.44,3970439941.69,0.0000,0.00,2024-07-02 14:40:59,2728.82,595236.6,595236571.4,0.00,Close,71.29,
665,1,5,,CCCV Chg,01:31:00,05:29:32,49.9970,54.5944,75.8324,75832433.78,75.8324,75832433.78,0.0000,0.00,4061.42,4061415560.53,4061.42,4061415560.53,0.0000,0.00,2024-07-02 14:42:59,2729.55,66137.4,66137396.8,0.00,Close,72.89,
669,1,5,,CCCV Chg,01:33:00,05:31:32,49.9991,54.6060,77.4991,77499073.42,77.4991,77499073.42,0.0000,0.00,4152.42,4152415573.33,4152.42,4152415573.33,0.0000,0.00,2024-07-02 14:44:59,2730.25,694423.7,694423703.7,0.00,Close,74.49,
673,1,5,,CCCV Chg,01:35:00,05:33:32,50.0010,54.6225,79.1657,79165724.44,79.1657,79165724.44,0.0000,0.00,4243.44,4243437431.47,4243.44,4243437431.47,0.0000,0.00,2024-07-02 14:46:59,2731.18,68304.9,68304903.5,0.00,Close,76.10,
677,1,5,,CCCV Chg,01:37:00,05:35:32,50.0015,54.6378,80.8324,80832375.47,80.8324,80832375.47,0.0000,0.00,4334.49,4334485504.00,4334.49,4334485504.00,0.0000,0.00,2024-07-02 14:48:59,2731.97,59522.8,59522844.4,0.00,Close,77.70,
681,1,5,,CCCV Chg,01:39:00,05:37:32,50.0005,54.6519,82.4990,82499020.80,82.4990,82499020.80,0.0000,0.00,4425.56,4425558334.58,4425.56,4425558334.58,0.0000,0.00,2024-07-02 14:50:59,2732.62,126262.3,126262303.0,0.00,Close,79.30,
685,1,5,,CCCV Chg,01:41:00,05:39:32,50.0013,54.6688,84.1657,84165671.82,84.1657,84165671.82,0.0000,0.00,4516.66,4516658471.82,4516.66,4516658471.82,0.0000,0.00,2024-07-02 14:52:59,2733.51,101625.8,101625756.1,0.00,Close,80.90,
689,1,5,,CCCV Chg,01:43:00,05:41:32,49.9978,54.6889,85.8323,85832311.47,85.8323,85832311.47,0.0000,0.00,4607.79,4607789556.62,4607.79,4607789556.62,0.0000,0.00,2024-07-02 14:54:59,2734.33,81698.0,81698021.8,0.00,Close,82.50,
693,1,5,,CCCV Chg,01:45:00,05:43:32,49.9985,54.7095,87.4990,87498962.49,87.4990,87498962.49,0.0000,0.00,4698.95,4698954501.69,4698.95,4698954501.69,0.0000,0.00,2024-07-02 14:56:59,2735.39,70622.3,70622252.4,0.00,Close,84.11,
697,1,5,,CCCV Chg,01:47:00,05:45:32,50.0044,54.7324,89.1656,89165607.82,89.1656,89165607.82,0.0000,0.00,4790.16,4790155491.56,4790.16,4790155491.56,0.0000,0.00,2024-07-02 14:58:59,2736.86,94696.7,94696727.3,0.00,Close,85.71,
701,1,5,,CCCV Chg,01:49:00,05:47:32,50.0076,54.7590,90.8322,90832247.47,90.8322,90832247.47,0.0000,0.00,4881.4,4881397623.47,4881.4,4881397623.47,0.0000,0.00,2024-07-02 15:00:59,2738.37,59522.0,59522031.7,0.00,Close,87.31,
705,1,5,,CCCV Chg,01:51:00,05:49:32,49.9989,54.7853,92.4989,92498898.49,92.4989,92498898.49,0.0000,0.00,4972.68,4972683446.04,4972.68,4972683446.04,0.0000,0.00,2024-07-02 15:02:59,2739.2,66136.5,66136493.8,0.00,Close,88.91,
709,1,5,,CCCV Chg,01:53:00,05:51:32,49.9995,54.8186,94.1655,94165549.51,94.1655,94165549.51,0.0000,0.00,5064.02,5064018420.62,5064.02,5064018420.62,0.0000,0.00,2024-07-02 15:04:59,2740.9,68304.9,68304903.5,0.00,Close,90.51,
713,1,5,,CCCV Chg,01:55:00,05:53:32,50.0061,54.8627,95.8322,95832189.16,95.8322,95832189.16,0.0000,0.00,5155.42,5155416746.67,5155.42,5155416746.67,0.0000,0.00,2024-07-02 15:06:59,2743.47,33068.2,33068246.9,0.00,Close,92.12,
717,1,5,,CCCV Chg,01:57:00,05:55:32,49.9965,54.9197,97.4988,97498840.18,97.4988,97498840.18,0.0000,0.00,5246.9,5246896992.71,5246.9,5246896992.71,0.0000,0.00,2024-07-02 15:08:59,2745.79,24950.0,24950035.9,0.00,Close,93.72,
721,1,5,,CCCV Chg,01:59:00,05:57:32,50.0003,55.0083,99.1655,99165479.82,99.1655,99165479.82,0.0000,0.00,5338.49,5338494839.47,5338.49,5338494839.47,0.0000,0.00,2024-07-02 15:10:59,2750.43,14827.6,14827552.4,0.00,Close,95.32,
725,1,5,,CCCV Chg,02:01:00,05:59:32,49.9980,55.1585,100.8321,100832119.47,100.8321,100832119.47,0.0000,0.00,5430.29,5430286745.60,5430.29,5430286745.60,0.0000,0.00,2024-07-02 15:12:59,2757.81,8716.4,8716377.5,0.00,Close,96.92,
729,1,5,,CCCV Chg,02:03:00,06:01:32,49.9966,55.5186,102.4988,102498770.49,102.4988,102498770.49,0.0000,0.00,5522.47,5522466770.49,5522.47,5522466770.49,0.0000,0.00,2024-07-02 15:14:59,2775.74,3247.5,3247499.8,0.00,Close,98.52,
733,1,5,,CCCV Chg,02:04:50,06:03:22,-0.0208,59.2845,104.0335,104033541.69,104.0335,104033541.69,0.0000,0.00,5608.49,5608489688.18,5608.49,5608489688.18,0.0000,0.00,2024-07-02 15:16:49,-1.2343,101.7,101716.0,0.00,Close,100.00,